time,acc_x,acc_y,acc_z
19:26:42.916,-0.39697,0.21509,-0.90112;
19:26:42.926,-0.39795,0.21655,-0.89697;
19:26:42.936,-0.39917,0.21143,-0.88794;
19:26:42.946,-0.40161,0.21533,-0.89185;
19:26:42.956,-0.40161,0.22070,-0.89600;
19:26:42.966,-0.39966,0.21460,-0.89160;
19:26:42.976,-0.40112,0.20972,-0.88623;
19:26:42.986,-0.40283,0.21118,-0.88306;
19:26:42.996,-0.40771,0.21631,-0.88306;
19:26:43.006,-0.40845,0.21875,-0.88208;
19:26:43.016,-0.40576,0.21655,-0.87695;
19:26:43.026,-0.40503,0.21655,-0.87573;
19:26:43.036,-0.40356,0.21680,-0.87378;
19:26:43.046,-0.41016,0.20850,-0.88062;
19:26:43.056,-0.41064,0.21851,-0.88428;
19:26:43.066,-0.40088,0.21289,-0.89111;
19:26:43.076,-0.39307,0.21387,-0.90503;
19:26:43.086,-0.39404,0.20630,-0.90454;
19:26:43.096,-0.39673,0.21118,-0.90479;
19:26:43.106,-0.40161,0.21362,-0.88818;
19:26:43.116,-0.40161,0.21216,-0.88110;
19:26:43.126,-0.40161,0.21094,-0.87915;
19:26:43.136,-0.40234,0.20996,-0.87866;
19:26:43.146,-0.40405,0.21338,-0.87622;
19:26:43.156,-0.40430,0.21558,-0.88086;
19:26:43.166,-0.40747,0.21143,-0.88428;
19:26:43.176,-0.40649,0.21021,-0.88428;
19:26:43.186,-0.40698,0.21436,-0.87964;
19:26:43.196,-0.40503,0.21704,-0.87842;
19:26:43.206,-0.40112,0.22046,-0.88550;
19:26:43.216,-0.40161,0.21704,-0.89307;
19:26:43.226,-0.39746,0.20923,-0.89697;
19:26:43.236,-0.39819,0.20679,-0.89990;
19:26:43.246,-0.39673,0.21289,-0.90039;
19:26:43.256,-0.39868,0.21313,-0.89526;
19:26:43.266,-0.39868,0.21509,-0.88428;
19:26:43.276,-0.39844,0.21924,-0.88086;
19:26:43.286,-0.40430,0.21753,-0.88257;
19:26:43.296,-0.40381,0.21509,-0.88501;
19:26:43.306,-0.40283,0.21240,-0.89331;
19:26:43.316,-0.40015,0.20532,-0.89771;
19:26:43.326,-0.39600,0.20923,-0.89868;
19:26:43.336,-0.39575,0.21899,-0.90015;
19:26:43.346,-0.39990,0.21240,-0.89722;
19:26:43.356,-0.40088,0.20801,-0.88989;
19:26:43.366,-0.40088,0.21606,-0.88379;
19:26:43.376,-0.40137,0.22021,-0.88159;
19:26:43.386,-0.40210,0.21460,-0.88354;
19:26:43.396,-0.40503,0.20752,-0.88428;
19:26:43.406,-0.40698,0.20605,-0.88330;
19:26:43.416,-0.40796,0.20703,-0.88232;
19:26:43.426,-0.40454,0.20850,-0.88672;
19:26:43.436,-0.40283,0.22119,-0.88843;
19:26:43.446,-0.40112,0.21240,-0.88647;
19:26:43.456,-0.40186,0.20776,-0.89063;
19:26:43.466,-0.40210,0.20776,-0.89014;
19:26:43.476,-0.40234,0.20972,-0.89209;
19:26:43.486,-0.39795,0.20972,-0.89014;
19:26:43.496,-0.39819,0.20874,-0.89258;
19:26:43.506,-0.39746,0.21338,-0.89478;
19:26:43.516,-0.39868,0.21680,-0.89185;
19:26:43.526,-0.40112,0.21118,-0.89209;
19:26:43.536,-0.40503,0.20654,-0.89111;
19:26:43.546,-0.40576,0.20898,-0.88818;
19:26:43.556,-0.40381,0.21436,-0.88940;
19:26:43.566,-0.40234,0.21460,-0.88916;
19:26:43.576,-0.40405,0.20850,-0.88965;
19:26:43.586,-0.40283,0.20483,-0.89209;
19:26:43.596,-0.40063,0.21216,-0.89478;
19:26:43.606,-0.40137,0.21313,-0.89478;
19:26:43.616,-0.39673,0.21021,-0.89673;
19:26:43.626,-0.39648,0.21411,-0.89673;
19:26:43.636,-0.39966,0.21289,-0.89307;
19:26:43.646,-0.40210,0.21216,-0.88965;
19:26:43.656,-0.40356,0.20728,-0.88550;
19:26:43.666,-0.40430,0.20679,-0.88379;
19:26:43.676,-0.40601,0.20972,-0.88062;
19:26:43.686,-0.40405,0.21191,-0.88306;
19:26:43.696,-0.40283,0.21313,-0.88892;
19:26:43.706,-0.40283,0.21460,-0.89478;
19:26:43.716,-0.40186,0.21167,-0.89526;
19:26:43.726,-0.40137,0.20532,-0.89380;
19:26:43.736,-0.40210,0.20679,-0.89429;
19:26:43.746,-0.40112,0.21021,-0.89160;
19:26:43.756,-0.40088,0.21313,-0.89160;
19:26:43.766,-0.39893,0.21289,-0.89111;
19:26:43.776,-0.39795,0.21069,-0.88916;
19:26:43.786,-0.39771,0.21484,-0.88965;
19:26:43.796,-0.39600,0.21655,-0.89014;
19:26:43.806,-0.39990,0.21118,-0.89185;
19:26:43.816,-0.40137,0.21021,-0.89014;
19:26:43.826,-0.40405,0.20972,-0.89038;
19:26:43.836,-0.40356,0.21777,-0.88892;
19:26:43.846,-0.40186,0.21240,-0.89014;
19:26:43.856,-0.40088,0.20898,-0.89478;
19:26:43.866,-0.40039,0.21118,-0.89966;
19:26:43.876,-0.39746,0.21216,-0.89209;
19:26:43.886,-0.39722,0.21655,-0.88159;
19:26:43.896,-0.39453,0.21948,-0.87842;
19:26:43.906,-0.39551,0.21777,-0.87915;
19:26:43.916,-0.40259,0.21338,-0.87842;
19:26:43.926,-0.40991,0.20825,-0.88013;
19:26:43.936,-0.41187,0.20435,-0.88306;
19:26:43.946,-0.41187,0.20850,-0.88452;
19:26:43.956,-0.40552,0.21484,-0.89136;
19:26:43.966,-0.39990,0.22144,-0.89478;
19:26:43.976,-0.39551,0.22266,-0.89063;
19:26:43.986,-0.39331,0.21729,-0.89136;
19:26:43.996,-0.39990,0.21069,-0.89404;
19:26:44.006,-0.40259,0.21094,-0.90283;
19:26:44.016,-0.40430,0.21143,-0.91040;
19:26:44.026,-0.39600,0.20459,-0.90039;
19:26:44.036,-0.38867,0.21143,-0.88599;
19:26:44.046,-0.39258,0.21313,-0.87988;
19:26:44.056,-0.39551,0.21680,-0.88794;
19:26:44.066,-0.40063,0.21753,-0.88477;
19:26:44.076,-0.40308,0.21436,-0.87842;
19:26:44.086,-0.40454,0.21606,-0.87817;
19:26:44.096,-0.40601,0.21680,-0.87109;
19:26:44.106,-0.40918,0.21094,-0.87549;
19:26:44.116,-0.41138,0.20288,-0.88184;
19:26:44.126,-0.40576,0.22021,-0.89551;
19:26:44.136,-0.39600,0.21216,-0.89111;
19:26:44.146,-0.39600,0.20483,-0.88477;
19:26:44.156,-0.40015,0.21240,-0.89380;
19:26:44.166,-0.39795,0.20874,-0.89282;
19:26:44.176,-0.39673,0.21118,-0.90576;
19:26:44.186,-0.39063,0.21582,-0.90918;
19:26:44.196,-0.39380,0.20630,-0.89331;
19:26:44.206,-0.39917,0.22314,-0.88770;
19:26:44.216,-0.40308,0.20557,-0.88477;
19:26:44.226,-0.40479,0.20752,-0.87866;
19:26:44.236,-0.40527,0.21069,-0.87622;
19:26:44.246,-0.40356,0.20874,-0.87744;
19:26:44.256,-0.40503,0.21753,-0.88330;
19:26:44.266,-0.40186,0.21924,-0.88745;
19:26:44.276,-0.39966,0.21240,-0.88818;
19:26:44.286,-0.40112,0.20996,-0.89307;
19:26:44.296,-0.39893,0.20679,-0.89380;
19:26:44.306,-0.39917,0.20850,-0.89526;
19:26:44.316,-0.39819,0.21411,-0.89380;
19:26:44.326,-0.39673,0.21606,-0.88672;
19:26:44.336,-0.39917,0.21558,-0.88574;
19:26:44.346,-0.39893,0.21240,-0.88623;
19:26:44.356,-0.39966,0.21436,-0.89160;
19:26:44.366,-0.39868,0.21460,-0.89478;
19:26:44.376,-0.39600,0.21265,-0.89575;
19:26:44.386,-0.39868,0.21191,-0.89722;
19:26:44.396,-0.39844,0.21143,-0.89185;
19:26:44.406,-0.40088,0.21313,-0.89014;
19:26:44.416,-0.39966,0.21362,-0.89014;
19:26:44.426,-0.39697,0.20947,-0.88892;
19:26:44.436,-0.39673,0.21240,-0.88989;
19:26:44.446,-0.39478,0.21655,-0.89307;
19:26:44.456,-0.39722,0.21533,-0.89380;
19:26:44.466,-0.39941,0.21216,-0.88721;
19:26:44.476,-0.40210,0.20874,-0.87842;
19:26:44.486,-0.40649,0.21069,-0.87402;
19:26:44.496,-0.40527,0.21411,-0.88062;
19:26:44.506,-0.40527,0.22021,-0.88110;
19:26:44.516,-0.40015,0.21191,-0.87939;
19:26:44.526,-0.40405,0.20801,-0.88354;
19:26:44.536,-0.40405,0.20410,-0.89380;
19:26:44.546,-0.39819,0.21094,-0.89795;
19:26:44.556,-0.39307,0.21973,-0.89624;
19:26:44.566,-0.39087,0.22095,-0.89453;
19:26:44.576,-0.39331,0.21655,-0.89502;
19:26:44.586,-0.39453,0.20801,-0.89111;
19:26:44.596,-0.39746,0.20508,-0.89722;
19:26:44.606,-0.40137,0.21094,-0.89771;
19:26:44.616,-0.39917,0.21729,-0.89282;
19:26:44.626,-0.39575,0.21704,-0.89160;
19:26:44.636,-0.39868,0.21655,-0.88574;
19:26:44.646,-0.40039,0.21704,-0.88770;
19:26:44.656,-0.40039,0.21387,-0.88818;
19:26:44.666,-0.40161,0.21313,-0.88892;
19:26:44.676,-0.40161,0.21094,-0.89136;
19:26:44.686,-0.40259,0.20850,-0.88892;
19:26:44.696,-0.40137,0.21167,-0.88623;
19:26:44.706,-0.39697,0.21313,-0.88257;
19:26:44.716,-0.39673,0.21997,-0.88086;
19:26:44.726,-0.39819,0.22021,-0.87793;
19:26:44.736,-0.40039,0.21191,-0.88062;
19:26:44.746,-0.40576,0.21045,-0.88623;
19:26:44.756,-0.40747,0.21289,-0.88794;
19:26:44.766,-0.40552,0.21411,-0.89136;
19:26:44.776,-0.40234,0.21729,-0.88916;
19:26:44.786,-0.39673,0.21655,-0.88770;
19:26:44.796,-0.39380,0.21411,-0.89404;
19:26:44.806,-0.39478,0.20825,-0.89673;
19:26:44.816,-0.39429,0.20850,-0.89746;
19:26:44.826,-0.39478,0.21484,-0.89502;
19:26:44.836,-0.39722,0.21558,-0.89160;
19:26:44.846,-0.39941,0.21289,-0.89087;
19:26:44.856,-0.40088,0.21143,-0.88623;
19:26:44.866,-0.40552,0.21167,-0.88818;
19:26:44.876,-0.40356,0.20947,-0.89038;
19:26:44.886,-0.40063,0.20972,-0.89551;
19:26:44.896,-0.39868,0.20850,-0.90015;
19:26:44.906,-0.39429,0.21436,-0.89917;
19:26:44.916,-0.39380,0.21362,-0.89722;
19:26:44.926,-0.39307,0.21558,-0.89258;
19:26:44.936,-0.39502,0.21802,-0.89185;
19:26:44.946,-0.39868,0.21680,-0.88672;
19:26:44.956,-0.39844,0.21484,-0.88354;
19:26:44.966,-0.40112,0.21509,-0.88403;
19:26:44.976,-0.40405,0.22095,-0.88940;
19:26:44.986,-0.40332,0.21802,-0.89160;
19:26:44.996,-0.39893,0.21606,-0.88013;
19:26:45.006,-0.40088,0.21753,-0.87476;
19:26:45.016,-0.40503,0.22168,-0.86963;
19:26:45.026,-0.40845,0.22461,-0.86475;
19:26:45.036,-0.41357,0.21631,-0.86646;
19:26:45.046,-0.41479,0.21509,-0.86938;
19:26:45.056,-0.41162,0.22021,-0.87549;
19:26:45.066,-0.40869,0.22119,-0.88208;
19:26:45.076,-0.40234,0.21558,-0.88745;
19:26:45.086,-0.39575,0.21313,-0.89063;
19:26:45.096,-0.39502,0.21533,-0.89429;
19:26:45.106,-0.39453,0.21704,-0.89941;
19:26:45.116,-0.39282,0.21655,-0.90015;
19:26:45.126,-0.39453,0.21240,-0.90112;
19:26:45.136,-0.39673,0.20850,-0.90234;
19:26:45.146,-0.39551,0.21167,-0.89966;
19:26:45.156,-0.39282,0.21631,-0.89600;
19:26:45.166,-0.39771,0.21655,-0.89307;
19:26:45.176,-0.40112,0.21777,-0.88867;
19:26:45.186,-0.40308,0.21362,-0.88843;
19:26:45.196,-0.40552,0.21069,-0.89258;
19:26:45.206,-0.40137,0.21143,-0.89355;
19:26:45.216,-0.39648,0.21338,-0.89160;
19:26:45.226,-0.39673,0.21631,-0.89063;
19:26:45.236,-0.39648,0.22095,-0.88818;
19:26:45.246,-0.39673,0.21777,-0.88550;
19:26:45.256,-0.39893,0.21460,-0.88623;
19:26:45.266,-0.40015,0.21558,-0.88501;
19:26:45.276,-0.40186,0.21729,-0.88232;
19:26:45.286,-0.40552,0.21729,-0.87988;
19:26:45.296,-0.40698,0.21191,-0.87939;
19:26:45.306,-0.40625,0.21411,-0.88354;
19:26:45.316,-0.40210,0.22314,-0.88062;
19:26:45.326,-0.40063,0.22217,-0.87964;
19:26:45.336,-0.40039,0.21802,-0.88306;
19:26:45.346,-0.40283,0.21338,-0.88794;
19:26:45.356,-0.40356,0.21094,-0.89160;
19:26:45.366,-0.39575,0.21631,-0.89795;
19:26:45.376,-0.39673,0.21021,-0.90234;
19:26:45.386,-0.39331,0.22192,-0.90430;
19:26:45.396,-0.39453,0.21436,-0.89282;
19:26:45.406,-0.39746,0.21411,-0.89111;
19:26:45.416,-0.40210,0.22144,-0.88281;
19:26:45.426,-0.40552,0.22095,-0.88208;
19:26:45.436,-0.40454,0.21680,-0.88232;
19:26:45.446,-0.40405,0.21509,-0.88159;
19:26:45.456,-0.40454,0.21265,-0.88086;
19:26:45.466,-0.40479,0.21021,-0.87988;
19:26:45.476,-0.40527,0.20947,-0.88110;
19:26:45.486,-0.40527,0.21387,-0.88037;
19:26:45.496,-0.40137,0.22021,-0.87988;
19:26:45.506,-0.40063,0.22070,-0.88501;
19:26:45.516,-0.40234,0.22290,-0.88184;
19:26:45.526,-0.40063,0.22290,-0.88647;
19:26:45.536,-0.39990,0.21338,-0.88892;
19:26:45.546,-0.40063,0.20703,-0.89355;
19:26:45.556,-0.40112,0.20459,-0.89355;
19:26:45.566,-0.39917,0.20947,-0.88940;
19:26:45.576,-0.39697,0.22290,-0.88818;
19:26:45.586,-0.39893,0.22559,-0.88354;
19:26:45.596,-0.40405,0.22046,-0.88086;
19:26:45.606,-0.40088,0.21313,-0.88232;
19:26:45.616,-0.40063,0.21289,-0.89087;
19:26:45.626,-0.39868,0.21167,-0.89429;
19:26:45.636,-0.39697,0.20996,-0.89746;
19:26:45.646,-0.39795,0.20801,-0.90137;
19:26:45.656,-0.39648,0.20703,-0.90161;
19:26:45.666,-0.39478,0.21338,-0.90039;
19:26:45.676,-0.39111,0.22437,-0.89404;
19:26:45.686,-0.39063,0.22534,-0.89233;
19:26:45.696,-0.39453,0.21582,-0.88916;
19:26:45.706,-0.39697,0.20850,-0.88672;
19:26:45.716,-0.40308,0.20459,-0.89014;
19:26:45.726,-0.41040,0.20386,-0.88721;
19:26:45.736,-0.41040,0.20630,-0.88892;
19:26:45.746,-0.40747,0.21777,-0.88843;
19:26:45.756,-0.40283,0.22095,-0.88403;
19:26:45.766,-0.39819,0.21631,-0.88403;
19:26:45.776,-0.39746,0.21240,-0.89258;
19:26:45.786,-0.39551,0.21167,-0.89575;
19:26:45.796,-0.39282,0.21240,-0.89551;
19:26:45.806,-0.38989,0.21069,-0.89795;
19:26:45.816,-0.39282,0.21313,-0.89355;
19:26:45.826,-0.39893,0.21143,-0.89014;
19:26:45.836,-0.39990,0.20996,-0.88940;
19:26:45.846,-0.39868,0.21582,-0.88501;
19:26:45.856,-0.39893,0.21826,-0.88452;
19:26:45.866,-0.40186,0.21631,-0.89136;
19:26:45.876,-0.40308,0.21973,-0.89160;
19:26:45.886,-0.40186,0.21582,-0.89478;
19:26:45.896,-0.40088,0.20508,-0.89380;
19:26:45.906,-0.40161,0.20239,-0.88550;
19:26:45.916,-0.40088,0.21045,-0.88135;
19:26:45.926,-0.39551,0.21802,-0.88403;
19:26:45.936,-0.39771,0.22144,-0.88721;
19:26:45.946,-0.39990,0.22144,-0.88672;
19:26:45.956,-0.39917,0.21875,-0.88696;
19:26:45.966,-0.40234,0.20947,-0.88696;
19:26:45.976,-0.39990,0.20679,-0.89063;
19:26:45.986,-0.39990,0.21143,-0.89380;
19:26:45.996,-0.40259,0.21240,-0.89258;
19:26:46.006,-0.40210,0.21655,-0.89185;
19:26:46.016,-0.40063,0.21094,-0.89063;
19:26:46.026,-0.39917,0.20654,-0.88574;
19:26:46.036,-0.39697,0.21680,-0.88599;
19:26:46.046,-0.39673,0.22388,-0.88940;
19:26:46.056,-0.40015,0.21777,-0.89087;
19:26:46.066,-0.40186,0.20776,-0.89209;
19:26:46.076,-0.39966,0.20532,-0.89038;
19:26:46.086,-0.39844,0.20996,-0.89087;
19:26:46.096,-0.39746,0.21387,-0.89307;
19:26:46.106,-0.39697,0.21460,-0.89478;
19:26:46.116,-0.39746,0.21533,-0.89233;
19:26:46.126,-0.39795,0.21338,-0.89111;
19:26:46.136,-0.39844,0.21265,-0.89038;
19:26:46.146,-0.40039,0.21021,-0.89185;
19:26:46.156,-0.40063,0.20874,-0.89258;
19:26:46.166,-0.39746,0.21265,-0.88770;
19:26:46.176,-0.39966,0.21704,-0.88525;
19:26:46.186,-0.40210,0.21777,-0.88379;
19:26:46.196,-0.40625,0.21143,-0.88721;
19:26:46.206,-0.40771,0.20825,-0.88745;
19:26:46.216,-0.40405,0.20947,-0.88940;
19:26:46.226,-0.39868,0.21484,-0.89355;
19:26:46.236,-0.39722,0.21753,-0.89478;
19:26:46.246,-0.39526,0.21216,-0.89502;
19:26:46.256,-0.39624,0.21021,-0.89648;
19:26:46.266,-0.39673,0.21118,-0.89551;
19:26:46.276,-0.39624,0.21387,-0.89209;
19:26:46.286,-0.39819,0.21484,-0.88916;
19:26:46.296,-0.39697,0.21509,-0.88794;
19:26:46.306,-0.40039,0.21265,-0.88721;
19:26:46.316,-0.40112,0.21094,-0.88550;
19:26:46.326,-0.40112,0.21606,-0.88501;
19:26:46.336,-0.40332,0.21729,-0.88037;
19:26:46.346,-0.40479,0.21216,-0.88135;
19:26:46.356,-0.40454,0.21313,-0.88306;
19:26:46.366,-0.40088,0.21460,-0.88721;
19:26:46.376,-0.39844,0.21069,-0.89502;
19:26:46.386,-0.39868,0.21265,-0.89722;
19:26:46.396,-0.39673,0.21582,-0.89551;
19:26:46.406,-0.39429,0.21606,-0.89038;
19:26:46.416,-0.39819,0.21411,-0.89063;
19:26:46.426,-0.39844,0.21313,-0.88794;
19:26:46.436,-0.39941,0.20728,-0.88770;
19:26:46.446,-0.40161,0.20703,-0.88745;
19:26:46.456,-0.40015,0.21606,-0.88623;
19:26:46.466,-0.40015,0.21680,-0.88818;
19:26:46.476,-0.40063,0.20996,-0.88550;
19:26:46.486,-0.40137,0.21313,-0.88428;
19:26:46.496,-0.40015,0.21826,-0.88818;
19:26:46.506,-0.40063,0.21655,-0.89209;
19:26:46.516,-0.39917,0.21387,-0.89111;
19:26:46.526,-0.39917,0.20947,-0.89478;
19:26:46.536,-0.40259,0.21118,-0.89722;
19:26:46.546,-0.39917,0.20801,-0.89478;
19:26:46.556,-0.39893,0.21777,-0.89160;
19:26:46.566,-0.39697,0.21216,-0.89624;
19:26:46.576,-0.39624,0.21436,-0.89355;
19:26:46.586,-0.40088,0.20874,-0.89307;
19:26:46.596,-0.39722,0.22388,-0.88940;
19:26:46.606,-0.39917,0.21533,-0.88403;
19:26:46.616,-0.40625,0.21338,-0.88208;
19:26:46.626,-0.40649,0.22021,-0.88013;
19:26:46.636,-0.40820,0.21533,-0.87915;
19:26:46.646,-0.40771,0.20996,-0.87354;
19:26:46.656,-0.40479,0.22876,-0.87402;
19:26:46.666,-0.40259,0.23193,-0.88013;
19:26:46.676,-0.40308,0.21216,-0.88940;
19:26:46.686,-0.40088,0.20337,-0.88403;
19:26:46.696,-0.39380,0.22290,-0.87939;
19:26:46.706,-0.40161,0.21899,-0.88599;
19:26:46.716,-0.40234,0.20654,-0.88599;
19:26:46.726,-0.40259,0.21533,-0.88965;
19:26:46.736,-0.40454,0.21704,-0.89063;
19:26:46.746,-0.39819,0.21704,-0.89722;
19:26:46.756,-0.39648,0.21118,-0.89966;
19:26:46.766,-0.39526,0.20557,-0.90308;
19:26:46.776,-0.39429,0.20972,-0.90747;
19:26:46.786,-0.39355,0.21948,-0.90186;
19:26:46.796,-0.39648,0.21777,-0.89697;
19:26:46.806,-0.39795,0.21265,-0.89746;
19:26:46.816,-0.40088,0.20947,-0.89380;
19:26:46.826,-0.40161,0.20557,-0.89502;
19:26:46.836,-0.39600,0.21313,-0.89624;
19:26:46.846,-0.39502,0.22192,-0.89209;
19:26:46.856,-0.39844,0.22192,-0.89648;
19:26:46.866,-0.40015,0.21924,-0.89209;
19:26:46.876,-0.40015,0.21582,-0.88770;
19:26:46.886,-0.40259,0.21289,-0.89429;
19:26:46.896,-0.40625,0.21460,-0.88794;
19:26:46.906,-0.40356,0.21924,-0.87646;
19:26:46.916,-0.40088,0.21411,-0.86841;
19:26:46.926,-0.40405,0.21558,-0.86890;
19:26:46.936,-0.40527,0.22217,-0.86816;
19:26:46.946,-0.40820,0.22437,-0.86646;
19:26:46.956,-0.41040,0.22607,-0.87329;
19:26:46.966,-0.40723,0.22729,-0.87671;
19:26:46.976,-0.40845,0.22144,-0.87842;
19:26:46.986,-0.40991,0.20923,-0.88110;
19:26:46.996,-0.40698,0.20679,-0.88965;
19:26:47.006,-0.40503,0.21436,-0.89722;
19:26:47.016,-0.40186,0.21948,-0.89380;
19:26:47.026,-0.39355,0.21948,-0.88745;
19:26:47.036,-0.38892,0.22681,-0.88354;
19:26:47.046,-0.39307,0.23218,-0.88257;
19:26:47.056,-0.40039,0.22412,-0.88232;
19:26:47.066,-0.40796,0.21045,-0.88184;
19:26:47.076,-0.41626,0.20508,-0.88403;
19:26:47.086,-0.41650,0.20239,-0.88477;
19:26:47.096,-0.41113,0.21118,-0.89038;
19:26:47.106,-0.40405,0.22632,-0.89429;
19:26:47.116,-0.39893,0.22803,-0.88989;
19:26:47.126,-0.39722,0.22656,-0.89282;
19:26:47.136,-0.39648,0.22266,-0.89551;
19:26:47.146,-0.39795,0.21460,-0.89502;
19:26:47.156,-0.39844,0.20947,-0.89526;
19:26:47.166,-0.40063,0.21045,-0.89673;
19:26:47.176,-0.40210,0.21313,-0.89746;
19:26:47.186,-0.39941,0.21680,-0.89844;
19:26:47.196,-0.39746,0.21997,-0.89233;
19:26:47.206,-0.39697,0.21802,-0.88647;
19:26:47.216,-0.39893,0.22070,-0.88965;
19:26:47.226,-0.39990,0.22754,-0.88647;
19:26:47.236,-0.39990,0.21509,-0.88867;
19:26:47.246,-0.40405,0.21484,-0.88843;
19:26:47.256,-0.40527,0.21680,-0.88672;
19:26:47.266,-0.40259,0.22192,-0.87988;
19:26:47.276,-0.40576,0.22852,-0.87769;
19:26:47.286,-0.41016,0.22656,-0.87744;
19:26:47.296,-0.41406,0.22266,-0.87402;
19:26:47.306,-0.41895,0.21948,-0.87524;
19:26:47.316,-0.41260,0.21924,-0.88062;
19:26:47.326,-0.40942,0.21948,-0.88574;
19:26:47.336,-0.40625,0.21191,-0.88989;
19:26:47.346,-0.40210,0.21411,-0.89453;
19:26:47.356,-0.40527,0.22363,-0.89648;
19:26:47.366,-0.40405,0.22534,-0.89087;
19:26:47.376,-0.40259,0.22119,-0.88696;
19:26:47.386,-0.40259,0.22046,-0.88940;
19:26:47.396,-0.40552,0.22217,-0.89038;
19:26:47.406,-0.40747,0.22217,-0.88916;
19:26:47.416,-0.40625,0.21948,-0.89014;
19:26:47.426,-0.40430,0.22168,-0.89282;
19:26:47.436,-0.40063,0.22266,-0.88525;
19:26:47.446,-0.40137,0.22095,-0.87769;
19:26:47.456,-0.40894,0.21997,-0.87988;
19:26:47.466,-0.41406,0.22559,-0.87915;
19:26:47.476,-0.41626,0.23047,-0.87549;
19:26:47.486,-0.41650,0.22754,-0.87964;
19:26:47.496,-0.41479,0.22754,-0.88086;
19:26:47.506,-0.41382,0.21948,-0.87671;
19:26:47.516,-0.40918,0.22021,-0.87476;
19:26:47.526,-0.40771,0.22729,-0.87305;
19:26:47.536,-0.40942,0.22876,-0.87769;
19:26:47.546,-0.41064,0.22388,-0.87671;
19:26:47.556,-0.41504,0.22437,-0.87476;
19:26:47.566,-0.41406,0.22559,-0.87354;
19:26:47.576,-0.41211,0.22534,-0.87256;
19:26:47.586,-0.41455,0.22852,-0.87476;
19:26:47.596,-0.41553,0.22876,-0.88208;
19:26:47.606,-0.41479,0.22974,-0.88354;
19:26:47.616,-0.41382,0.22925,-0.87695;
19:26:47.626,-0.41138,0.21826,-0.88232;
19:26:47.636,-0.40869,0.21509,-0.88330;
19:26:47.646,-0.40576,0.21924,-0.88379;
19:26:47.656,-0.40796,0.22485,-0.88550;
19:26:47.666,-0.40894,0.22949,-0.88770;
19:26:47.676,-0.40869,0.23047,-0.88477;
19:26:47.686,-0.40674,0.22485,-0.88892;
19:26:47.696,-0.40967,0.21533,-0.88794;
19:26:47.706,-0.40869,0.22192,-0.88379;
19:26:47.716,-0.41284,0.23438,-0.87598;
19:26:47.726,-0.41211,0.21655,-0.87964;
19:26:47.736,-0.40869,0.20996,-0.89404;
19:26:47.746,-0.40454,0.23389,-0.89233;
19:26:47.756,-0.40869,0.22754,-0.88281;
19:26:47.766,-0.41138,0.21704,-0.88232;
19:26:47.776,-0.40991,0.22437,-0.88159;
19:26:47.786,-0.40991,0.23315,-0.88159;
19:26:47.796,-0.41431,0.22998,-0.88037;
19:26:47.806,-0.41577,0.22217,-0.87744;
19:26:47.816,-0.41528,0.22266,-0.87915;
19:26:47.826,-0.41064,0.22559,-0.88574;
19:26:47.836,-0.40649,0.22803,-0.88647;
19:26:47.846,-0.40674,0.23047,-0.88647;
19:26:47.856,-0.40649,0.22729,-0.88599;
19:26:47.866,-0.40625,0.22485,-0.88867;
19:26:47.876,-0.40723,0.22119,-0.88794;
19:26:47.886,-0.41309,0.22119,-0.88672;
19:26:47.896,-0.41138,0.22266,-0.88550;
19:26:47.906,-0.40698,0.22656,-0.88086;
19:26:47.916,-0.41211,0.22900,-0.87939;
19:26:47.926,-0.41431,0.22632,-0.87793;
19:26:47.936,-0.41626,0.22314,-0.88208;
19:26:47.946,-0.41870,0.22534,-0.87793;
19:26:47.956,-0.42114,0.22729,-0.87134;
19:26:47.966,-0.41650,0.22510,-0.87646;
19:26:47.976,-0.41309,0.22388,-0.87500;
19:26:47.986,-0.41382,0.22021,-0.87988;
19:26:47.996,-0.40771,0.22339,-0.88477;
19:26:48.006,-0.40576,0.22510,-0.88208;
19:26:48.016,-0.40601,0.22485,-0.88452;
19:26:48.026,-0.40698,0.22437,-0.88940;
19:26:48.036,-0.41211,0.22803,-0.88965;
19:26:48.046,-0.41309,0.22754,-0.88550;
19:26:48.056,-0.40991,0.21509,-0.88257;
19:26:48.066,-0.41333,0.21997,-0.88086;
19:26:48.076,-0.41382,0.22827,-0.88013;
19:26:48.086,-0.41138,0.22632,-0.88159;
19:26:48.096,-0.41235,0.22656,-0.87646;
19:26:48.106,-0.41040,0.22290,-0.87305;
19:26:48.116,-0.41553,0.22461,-0.88135;
19:26:48.126,-0.41406,0.22607,-0.88452;
19:26:48.136,-0.41040,0.22144,-0.89233;
19:26:48.146,-0.40698,0.22217,-0.89038;
19:26:48.156,-0.40356,0.22534,-0.88696;
19:26:48.166,-0.40601,0.22583,-0.88428;
19:26:48.176,-0.40698,0.22607,-0.88135;
19:26:48.186,-0.40723,0.22949,-0.87964;
19:26:48.196,-0.41040,0.23730,-0.87476;
19:26:48.206,-0.41382,0.23071,-0.87939;
19:26:48.216,-0.41528,0.22046,-0.87598;
19:26:48.226,-0.41724,0.22217,-0.87500;
19:26:48.236,-0.41919,0.22681,-0.87866;
19:26:48.246,-0.41748,0.22803,-0.87842;
19:26:48.256,-0.41333,0.22607,-0.87109;
19:26:48.266,-0.41113,0.22632,-0.86670;
19:26:48.276,-0.41113,0.22949,-0.87280;
19:26:48.286,-0.41089,0.23169,-0.88232;
19:26:48.296,-0.41333,0.22363,-0.88208;
19:26:48.306,-0.41650,0.21704,-0.88184;
19:26:48.316,-0.41602,0.21704,-0.88501;
19:26:48.326,-0.41064,0.22363,-0.88477;
19:26:48.336,-0.40723,0.23193,-0.88770;
19:26:48.346,-0.40723,0.23120,-0.88696;
19:26:48.356,-0.40405,0.22827,-0.89087;
19:26:48.366,-0.40332,0.22437,-0.89014;
19:26:48.376,-0.40601,0.21851,-0.88843;
19:26:48.386,-0.40918,0.22046,-0.88623;
19:26:48.396,-0.41040,0.22266,-0.87939;
19:26:48.406,-0.41602,0.22559,-0.87622;
19:26:48.416,-0.41675,0.22363,-0.87085;
19:26:48.426,-0.41577,0.22949,-0.87134;
19:26:48.436,-0.41772,0.23413,-0.87549;
19:26:48.446,-0.41382,0.22656,-0.88135;
19:26:48.456,-0.40967,0.22583,-0.88379;
19:26:48.466,-0.41040,0.22632,-0.88574;
19:26:48.476,-0.40552,0.22437,-0.88843;
19:26:48.486,-0.40625,0.22485,-0.88330;
19:26:48.496,-0.41016,0.22119,-0.87891;
19:26:48.506,-0.41284,0.22046,-0.87964;
19:26:48.516,-0.41187,0.22827,-0.87695;
19:26:48.526,-0.41235,0.23096,-0.87866;
19:26:48.536,-0.41187,0.22949,-0.87891;
19:26:48.546,-0.40894,0.22632,-0.88184;
19:26:48.556,-0.40918,0.22339,-0.88354;
19:26:48.566,-0.40967,0.22144,-0.88135;
19:26:48.576,-0.41382,0.23242,-0.88184;
19:26:48.586,-0.41675,0.22998,-0.87939;
19:26:48.596,-0.41382,0.22754,-0.87817;
19:26:48.606,-0.40771,0.22534,-0.87915;
19:26:48.616,-0.40796,0.22925,-0.87964;
19:26:48.626,-0.40869,0.22681,-0.88037;
19:26:48.636,-0.40674,0.21851,-0.87598;
19:26:48.646,-0.41357,0.21948,-0.87476;
19:26:48.656,-0.41772,0.22388,-0.87598;
19:26:48.666,-0.41479,0.22607,-0.87646;
19:26:48.676,-0.41113,0.22754,-0.87622;
19:26:48.686,-0.41138,0.22339,-0.88013;
19:26:48.696,-0.41211,0.21973,-0.88550;
19:26:48.706,-0.41016,0.21802,-0.88843;
19:26:48.716,-0.40576,0.21802,-0.88794;
19:26:48.726,-0.40308,0.22290,-0.88892;
19:26:48.736,-0.40503,0.22461,-0.89331;
19:26:48.746,-0.40698,0.22144,-0.89038;
19:26:48.756,-0.40723,0.22290,-0.88599;
19:26:48.766,-0.40576,0.22241,-0.88892;
19:26:48.776,-0.41089,0.21680,-0.89014;
19:26:48.786,-0.41431,0.21387,-0.88721;
19:26:48.796,-0.40820,0.21655,-0.88989;
19:26:48.806,-0.40601,0.22363,-0.89258;
19:26:48.816,-0.40552,0.22388,-0.89355;
19:26:48.826,-0.40405,0.22461,-0.89258;
19:26:48.836,-0.40332,0.22095,-0.89502;
19:26:48.846,-0.40210,0.22217,-0.88599;
19:26:48.856,-0.40381,0.22461,-0.88086;
19:26:48.866,-0.41333,0.22266,-0.87305;
19:26:48.876,-0.41064,0.23364,-0.86987;
19:26:48.886,-0.41943,0.22290,-0.88184;
19:26:48.896,-0.41309,0.23340,-0.87134;
19:26:48.906,-0.41431,0.21826,-0.86768;
19:26:48.916,-0.41553,0.22607,-0.87744;
19:26:48.926,-0.41064,0.21973,-0.88843;
19:26:48.936,-0.40503,0.22607,-0.88892;
19:26:48.946,-0.40674,0.22437,-0.88721;
19:26:48.956,-0.40430,0.21875,-0.89136;
19:26:48.966,-0.40381,0.21240,-0.89209;
19:26:48.976,-0.40723,0.21558,-0.89600;
19:26:48.986,-0.40771,0.22412,-0.89429;
19:26:48.996,-0.40454,0.22900,-0.88354;
19:26:49.006,-0.40381,0.23022,-0.88257;
19:26:49.016,-0.40845,0.22241,-0.88281;
19:26:49.026,-0.41333,0.21265,-0.88940;
19:26:49.036,-0.41138,0.21802,-0.89624;
19:26:49.046,-0.40869,0.22876,-0.88965;
19:26:49.056,-0.40503,0.22827,-0.88965;
19:26:49.066,-0.40601,0.22778,-0.89014;
19:26:49.076,-0.41016,0.22681,-0.88501;
19:26:49.086,-0.40894,0.22607,-0.88062;
19:26:49.096,-0.41309,0.22583,-0.87598;
19:26:49.106,-0.41504,0.22803,-0.87378;
19:26:49.116,-0.41577,0.22925,-0.87231;
19:26:49.126,-0.41504,0.22803,-0.87280;
19:26:49.136,-0.41162,0.23022,-0.87354;
19:26:49.146,-0.41382,0.23340,-0.87231;
19:26:49.156,-0.41650,0.22729,-0.87598;
19:26:49.166,-0.40991,0.22632,-0.88062;
19:26:49.176,-0.40942,0.23169,-0.87549;
19:26:49.186,-0.41284,0.22754,-0.87671;
19:26:49.196,-0.40967,0.22168,-0.87769;
19:26:49.206,-0.41479,0.22388,-0.87720;
19:26:49.216,-0.41748,0.22705,-0.87817;
19:26:49.226,-0.41113,0.23071,-0.87744;
19:26:49.236,-0.40698,0.23560,-0.88257;
19:26:49.246,-0.41235,0.23193,-0.88892;
19:26:49.256,-0.41406,0.21704,-0.89893;
19:26:49.266,-0.40625,0.20874,-0.89941;
19:26:49.276,-0.40063,0.22192,-0.89819;
19:26:49.286,-0.39722,0.22949,-0.89648;
19:26:49.296,-0.39966,0.23096,-0.89990;
19:26:49.306,-0.40430,0.22412,-0.90039;
19:26:49.316,-0.40918,0.21631,-0.90161;
19:26:49.326,-0.41675,0.21362,-0.90356;
19:26:49.336,-0.42334,0.21289,-0.90601;
19:26:49.346,-0.41602,0.21118,-0.90576;
19:26:49.356,-0.41113,0.22266,-0.89868;
19:26:49.366,-0.41260,0.24658,-0.89429;
19:26:49.376,-0.41602,0.24731,-0.89282;
19:26:49.386,-0.42188,0.22559,-0.89087;
19:26:49.396,-0.41309,0.20947,-0.89038;
19:26:49.406,-0.41455,0.21216,-0.89746;
19:26:49.416,-0.42041,0.22827,-0.90356;
19:26:49.426,-0.41504,0.24487,-0.90332;
19:26:49.436,-0.41333,0.24390,-0.88989;
19:26:49.446,-0.41797,0.24121,-0.88037;
19:26:49.456,-0.42041,0.24731,-0.87817;
19:26:49.466,-0.42407,0.25195,-0.87256;
19:26:49.476,-0.44189,0.26416,-0.85181;
19:26:49.486,-0.45313,0.27515,-0.82935;
19:26:49.496,-0.45288,0.26367,-0.81030;
19:26:49.506,-0.45166,0.24780,-0.80615;
19:26:49.516,-0.45142,0.24463,-0.82031;
19:26:49.526,-0.45850,0.25269,-0.83130;
19:26:49.536,-0.46606,0.25684,-0.83569;
19:26:49.546,-0.46973,0.24097,-0.83813;
19:26:49.556,-0.46948,0.22705,-0.84497;
19:26:49.566,-0.46240,0.24219,-0.85767;
19:26:49.576,-0.45117,0.26001,-0.87134;
19:26:49.586,-0.44409,0.26636,-0.87305;
19:26:49.596,-0.43628,0.26538,-0.87061;
19:26:49.606,-0.43701,0.25732,-0.86401;
19:26:49.616,-0.44629,0.25269,-0.85010;
19:26:49.626,-0.44727,0.24780,-0.83813;
19:26:49.636,-0.45435,0.24707,-0.83618;
19:26:49.646,-0.46362,0.24609,-0.83447;
19:26:49.656,-0.46509,0.24731,-0.83252;
19:26:49.666,-0.46216,0.24683,-0.82935;
19:26:49.676,-0.46973,0.24854,-0.82007;
19:26:49.686,-0.48413,0.25269,-0.82666;
19:26:49.696,-0.47974,0.25659,-0.83887;
19:26:49.706,-0.46631,0.26392,-0.84155;
19:26:49.716,-0.45654,0.26465,-0.84106;
19:26:49.726,-0.45288,0.26245,-0.83813;
19:26:49.736,-0.45215,0.25659,-0.84302;
19:26:49.746,-0.45288,0.25366,-0.84741;
19:26:49.756,-0.45581,0.24927,-0.85742;
19:26:49.766,-0.45190,0.25195,-0.87427;
19:26:49.776,-0.45044,0.26807,-0.87842;
19:26:49.786,-0.44849,0.26978,-0.86426;
19:26:49.796,-0.44067,0.26001,-0.84692;
19:26:49.806,-0.44409,0.25244,-0.84326;
19:26:49.816,-0.45435,0.25024,-0.85059;
19:26:49.826,-0.45996,0.25415,-0.85425;
19:26:49.836,-0.45874,0.25024,-0.85767;
19:26:49.846,-0.46216,0.25513,-0.86157;
19:26:49.856,-0.45654,0.26733,-0.85693;
19:26:49.866,-0.45142,0.26563,-0.85547;
19:26:49.876,-0.45923,0.26538,-0.85596;
19:26:49.886,-0.46436,0.26050,-0.84619;
19:26:49.896,-0.46631,0.24951,-0.83789;
19:26:49.906,-0.47168,0.25562,-0.84180;
19:26:49.916,-0.47070,0.26733,-0.85645;
19:26:49.926,-0.45850,0.27368,-0.85986;
19:26:49.936,-0.44702,0.26733,-0.85547;
19:26:49.946,-0.43848,0.25293,-0.86035;
19:26:49.956,-0.44019,0.25024,-0.86206;
19:26:49.966,-0.45483,0.25464,-0.86597;
19:26:49.976,-0.47461,0.26245,-0.87061;
19:26:49.986,-0.47559,0.27124,-0.85864;
19:26:49.996,-0.46460,0.26367,-0.83374;
19:26:50.006,-0.46729,0.25830,-0.81982;
19:26:50.016,-0.46899,0.26587,-0.81982;
19:26:50.026,-0.47217,0.26636,-0.83398;
19:26:50.036,-0.47827,0.26196,-0.83960;
19:26:50.046,-0.47290,0.25952,-0.83545;
19:26:50.056,-0.47778,0.25757,-0.83569;
19:26:50.066,-0.48608,0.25684,-0.82983;
19:26:50.076,-0.47583,0.26660,-0.81494;
19:26:50.086,-0.47632,0.27295,-0.80811;
19:26:50.096,-0.50269,0.26587,-0.83228;
19:26:50.106,-0.47534,0.26196,-0.84155;
19:26:50.116,-0.46094,0.26172,-0.83276;
19:26:50.126,-0.47583,0.26318,-0.86035;
19:26:50.136,-0.46289,0.26440,-0.86377;
19:26:50.146,-0.47925,0.25879,-0.84888;
19:26:50.156,-0.48413,0.26147,-0.84082;
19:26:50.166,-0.48999,0.26855,-0.83252;
19:26:50.176,-0.48926,0.26587,-0.82520;
19:26:50.186,-0.48218,0.26538,-0.81665;
19:26:50.196,-0.47363,0.26514,-0.82813;
19:26:50.206,-0.46997,0.26001,-0.84863;
19:26:50.216,-0.46436,0.26123,-0.86157;
19:26:50.226,-0.47168,0.26245,-0.86670;
19:26:50.236,-0.47510,0.25659,-0.85400;
19:26:50.246,-0.46973,0.26050,-0.83960;
19:26:50.256,-0.47974,0.26733,-0.83032;
19:26:50.266,-0.48950,0.27002,-0.82935;
19:26:50.276,-0.49048,0.26904,-0.83057;
19:26:50.286,-0.49438,0.27148,-0.82739;
19:26:50.296,-0.49390,0.27075,-0.81714;
19:26:50.306,-0.49390,0.26880,-0.80664;
19:26:50.316,-0.49878,0.26587,-0.80762;
19:26:50.326,-0.50293,0.26196,-0.80835;
19:26:50.336,-0.50391,0.26709,-0.80542;
19:26:50.346,-0.50391,0.27222,-0.79785;
19:26:50.356,-0.50073,0.27979,-0.80273;
19:26:50.366,-0.50195,0.28052,-0.81348;
19:26:50.376,-0.51318,0.26685,-0.81665;
19:26:50.386,-0.51123,0.26660,-0.81079;
19:26:50.396,-0.50269,0.28711,-0.80908;
19:26:50.406,-0.49365,0.31128,-0.80835;
19:26:50.416,-0.49512,0.31104,-0.82104;
19:26:50.426,-0.50098,0.28125,-0.84473;
19:26:50.436,-0.50293,0.26245,-0.86572;
19:26:50.446,-0.51050,0.25708,-0.89014;
19:26:50.456,-0.50684,0.26807,-0.90479;
19:26:50.466,-0.51147,0.30249,-0.93066;
19:26:50.476,-0.51489,0.32544,-0.93726;
19:26:50.486,-0.53174,0.30029,-0.91455;
19:26:50.496,-0.58618,0.27734,-0.88281;
19:26:50.506,-0.60327,0.30200,-0.84570;
19:26:50.516,-0.62427,0.27246,-0.91113;
19:26:50.526,-0.61572,0.19653,-1.04297;
19:26:50.536,-0.62183,0.21338,-1.11841;
19:26:50.546,-0.57056,0.27637,-0.92236;
19:26:50.556,-0.64819,0.18970,-0.90210;
19:26:50.566,-0.77637,-0.00757,-0.88867;
19:26:50.576,-0.71802,-0.06641,-0.68799;
19:26:50.586,-0.83276,-0.00879,-0.69409;
19:26:50.596,-0.70703,-0.04004,-0.37305;
19:26:50.606,-0.97534,0.17700,-0.80640;
19:26:50.616,-0.90479,0.41431,-0.77490;
19:26:50.626,-0.87256,0.31543,-0.70190;
19:26:50.636,-0.78027,0.17188,-0.36987;
19:26:50.646,-0.98267,0.27148,-0.75684;
19:26:50.656,-0.83716,0.27002,-0.49683;
19:26:50.666,-0.79150,0.12500,-0.48315;
19:26:50.676,-0.75317,0.11450,-0.26733;
19:26:50.686,-0.73340,0.19336,-0.19458;
19:26:50.696,-0.81226,0.39404,-0.48340;
19:26:50.706,-0.67700,0.59985,-0.46216;
19:26:50.716,-0.66553,0.74438,-0.36523;
19:26:50.726,-0.70996,0.71582,-0.25684;
19:26:50.736,-0.77441,0.59229,-0.29346;
19:26:50.746,-0.72925,0.56616,-0.29810;
19:26:50.756,-0.70337,0.58350,-0.33618;
19:26:50.766,-0.69604,0.57593,-0.37354;
19:26:50.776,-0.71216,0.55957,-0.42212;
19:26:50.786,-0.70752,0.56396,-0.42700;
19:26:50.796,-0.70532,0.60327,-0.42627;
19:26:50.806,-0.68530,0.65649,-0.42505;
19:26:50.816,-0.65332,0.72168,-0.42578;
19:26:50.826,-0.64014,0.76099,-0.39478;
19:26:50.836,-0.74365,0.68896,-0.23389;
19:26:50.846,-0.76782,0.63477,-0.22583;
19:26:50.856,-0.76196,0.63403,-0.24023;
19:26:50.866,-0.77808,0.63989,-0.29688;
19:26:50.876,-0.78613,0.62231,-0.39185;
19:26:50.886,-0.76001,0.61230,-0.41895;
19:26:50.896,-0.78320,0.54346,-0.42773;
19:26:50.906,-0.82080,0.40308,-0.45435;
19:26:50.916,-0.80664,0.28711,-0.45020;
19:26:50.926,-0.76074,0.22827,-0.45215;
19:26:50.936,-0.72388,0.19385,-0.43994;
19:26:50.946,-0.72583,0.14990,-0.40820;
19:26:50.956,-0.72485,0.09180,-0.37671;
19:26:50.966,-0.70874,0.04688,-0.34595;
19:26:50.976,-0.71680,0.00317,-0.39600;
19:26:50.986,-0.69043,-0.02075,-0.43457;
19:26:50.996,-0.63818,0.00610,-0.37598;
19:26:51.006,-0.63257,-0.04443,-0.31006;
19:26:51.016,-0.59204,-0.11621,-0.22852;
19:26:51.026,-0.59180,-0.18457,-0.09839;
19:26:51.036,-0.63354,-0.29419,-0.17603;
19:26:51.046,-0.91235,-0.50391,-0.92407;
19:26:51.056,-1.37891,0.31714,-1.69556;
19:26:51.066,-2.28857,4.48853,-3.07007;
19:26:51.076,-0.53564,5.09937,-1.17383;
19:26:51.086,0.36133,2.12891,1.46655;
19:26:51.096,-0.55078,-0.06909,0.51782;
19:26:51.106,-0.65015,-0.47119,-0.29932;
19:26:51.116,-1.22290,0.22949,-0.08472;
19:26:51.126,-1.66479,0.41431,-0.10205;
19:26:51.136,-1.38574,0.19800,-0.39404;
19:26:51.146,-0.93945,0.25830,-0.34302;
19:26:51.156,-0.87500,0.47217,-0.09790;
19:26:51.166,-0.83374,0.60083,0.14526;
19:26:51.176,-0.74805,0.67871,0.20044;
19:26:51.186,-0.62793,0.74292,0.12183;
19:26:51.196,-0.58252,0.86499,-0.02393;
19:26:51.206,-0.63208,0.91772,-0.14063;
19:26:51.216,-0.79468,0.77856,-0.15869;
19:26:51.226,-1.09082,0.33350,0.18872;
19:26:51.236,-1.08276,0.25439,0.23975;
19:26:51.246,-1.00244,0.48682,0.08472;
19:26:51.256,-0.79907,0.53149,0.07202;
19:26:51.266,-0.97998,0.37964,0.05420;
19:26:51.276,-1.07422,0.09277,0.19800;
19:26:51.286,-0.95605,0.10205,-0.10791;
19:26:51.296,-0.87427,0.04175,-0.10205;
19:26:51.306,-0.95288,-0.13159,0.00928;
19:26:51.316,-1.00000,-0.21533,0.06250;
19:26:51.326,-0.99268,-0.19336,0.12012;
19:26:51.336,-1.01050,-0.14209,0.09668;
19:26:51.346,-1.02710,-0.09668,0.12231;
19:26:51.356,-1.08179,-0.18457,0.36890;
19:26:51.366,-1.48120,-0.19385,0.19995;
19:26:51.376,-1.51221,-0.02222,-0.04468;
19:26:51.386,-1.52344,0.10425,-0.08960;
19:26:51.396,-1.51855,0.11743,0.01270;
19:26:51.406,-1.50122,-0.03418,0.13086;
19:26:51.416,-1.51514,-0.09229,0.06714;
19:26:51.426,-1.55469,-0.09790,-0.07104;
19:26:51.436,-1.58496,-0.12549,-0.34497;
19:26:51.446,-1.52100,-0.21924,-0.43579;
19:26:51.456,-1.22949,-0.42383,-0.42310;
19:26:51.466,-0.96484,-1.13452,-0.57495;
19:26:51.476,-0.69946,-2.62183,-0.70361;
19:26:51.486,-0.41138,-3.34229,-0.77051;
19:26:51.496,-0.55615,-2.86523,-1.10571;
19:26:51.506,-0.65405,-1.56201,-2.04199;
19:26:51.516,-0.39355,-1.03198,-1.72119;
19:26:51.526,-0.24341,-1.70313,-0.85156;
19:26:51.536,-0.15088,-1.71924,-0.77051;
19:26:51.546,-0.05371,-1.20703,-0.68384;
19:26:51.556,0.00732,-0.80469,-0.68140;
19:26:51.566,0.01343,-0.56567,-0.53735;
19:26:51.576,-0.08838,-0.04102,-0.43091;
19:26:51.586,0.44800,-0.12036,-0.07397;
19:26:51.596,0.84302,-0.86133,0.22314;
19:26:51.606,0.11670,0.27393,3.27222;
19:26:51.616,-1.78955,3.08667,6.59790;
19:26:51.626,-3.93994,1.59644,5.41577;
19:26:51.636,-2.92017,0.81323,4.58130;
19:26:51.646,-2.42236,-0.36108,2.63940;
19:26:51.656,-2.59790,-0.92017,0.40845;
19:26:51.666,-2.62695,0.45801,-1.12842;
19:26:51.676,-2.39014,0.41479,-1.93555;
19:26:51.686,-1.72046,-0.04443,-1.54736;
19:26:51.696,-1.29419,-0.23730,-0.78052;
19:26:51.706,-0.65088,-0.32202,0.03369;
19:26:51.716,-0.22974,-0.45776,0.67554;
19:26:51.726,0.10938,-0.57397,1.07080;
19:26:51.736,0.02930,-0.79907,1.22754;
19:26:51.746,-0.19385,-0.74048,1.00464;
19:26:51.756,-0.42603,-0.67749,0.57983;
19:26:51.766,-0.71191,-0.63086,0.02783;
19:26:51.776,-1.19360,-0.57642,-0.27417;
19:26:51.786,-1.89233,-0.32593,-0.02441;
19:26:51.796,-2.23096,-0.03076,-0.03711;
19:26:51.806,-1.81396,-0.15430,-0.38550;
19:26:51.816,-1.21802,-0.31006,-0.32715;
19:26:51.826,-0.89160,-0.37671,-0.06714;
19:26:51.836,-0.68701,-0.49683,0.10083;
19:26:51.846,-0.61084,-0.52100,0.22241;
19:26:51.856,-0.58496,-0.55322,0.30493;
19:26:51.866,-0.59717,-0.62109,0.29419;
19:26:51.876,-0.65674,-0.58765,0.18921;
19:26:51.886,-0.76245,-0.53247,-0.01636;
19:26:51.896,-0.83545,-0.50366,-0.20947;
19:26:51.906,-0.87866,-0.46558,-0.22729;
19:26:51.916,-1.02295,-0.47754,-0.05127;
19:26:51.926,-1.01074,-0.47876,-0.05542;
19:26:51.936,-0.98584,-0.46118,-0.02441;
19:26:51.946,-0.84937,-0.47192,0.02124;
19:26:51.956,-0.71167,-0.56885,0.07275;
19:26:51.966,-0.65576,-0.62646,0.10254;
19:26:51.976,-0.68042,-0.58960,0.06616;
19:26:51.986,-0.81689,-0.53687,-0.00757;
19:26:51.996,-0.96069,-0.44458,-0.07959;
19:26:52.006,-0.99658,-0.34448,-0.03296;
19:26:52.016,-1.07397,-0.49023,-0.38525;
19:26:52.026,-0.95532,-0.25513,-0.24097;
19:26:52.036,-0.90210,-0.59473,0.14355;
19:26:52.046,-0.74829,-0.63574,0.09814;
19:26:52.056,-0.76074,-0.51758,-0.01978;
19:26:52.066,-0.81152,-0.41211,-0.14844;
19:26:52.076,-0.90454,-0.44385,-0.10815;
19:26:52.086,-0.96021,-0.49609,-0.09839;
19:26:52.096,-0.92065,-0.45825,-0.10913;
19:26:52.106,-0.89087,-0.45605,-0.04663;
19:26:52.116,-0.84399,-0.46240,-0.04541;
19:26:52.126,-0.81274,-0.48389,-0.04028;
19:26:52.136,-0.82935,-0.46924,-0.10645;
19:26:52.146,-0.82983,-0.43042,-0.13062;
19:26:52.156,-0.87354,-0.44897,-0.07446;
19:26:52.166,-0.90039,-0.43945,-0.05176;
19:26:52.176,-0.85059,-0.42334,-0.05859;
19:26:52.186,-0.82251,-0.44312,-0.00928;
19:26:52.196,-0.85425,-0.41431,0.01660;
19:26:52.206,-0.84644,-0.43555,0.03076;
19:26:52.216,-0.82446,-0.47510,0.08887;
19:26:52.226,-0.86499,-0.49438,0.07666;
19:26:52.236,-0.85669,-0.48828,0.01978;
19:26:52.246,-0.98950,-0.37964,-0.04346;
19:26:52.256,-0.99902,-0.32422,0.05493;
19:26:52.266,-1.01831,-0.34595,0.06201;
19:26:52.276,-0.96631,-0.34595,0.01367;
19:26:52.286,-0.92236,-0.33081,0.02954;
19:26:52.296,-0.99463,-0.32397,0.09082;
19:26:52.306,-0.95874,-0.33057,0.06372;
19:26:52.316,-1.01709,-0.29004,0.00757;
19:26:52.326,-0.99243,-0.25122,-0.04199;
19:26:52.336,-1.03857,-0.21265,-0.00537;
19:26:52.346,-0.99463,-0.24561,-0.08936;
19:26:52.356,-0.89624,-0.37427,-0.06885;
19:26:52.366,-0.91431,-0.35913,-0.10522;
19:26:52.376,-0.88403,-0.34863,-0.10474;
19:26:52.386,-0.87915,-0.33887,-0.05005;
19:26:52.396,-0.92505,-0.34131,-0.01001;
19:26:52.406,-0.93994,-0.32056,-0.02368;
19:26:52.416,-0.94214,-0.30664,-0.09717;
19:26:52.426,-0.90869,-0.27295,-0.13159;
19:26:52.436,-0.87964,-0.26343,-0.07251;
19:26:52.446,-0.93677,-0.29028,0.00269;
19:26:52.456,-1.00317,-0.27588,0.00220;
19:26:52.466,-1.03491,-0.24194,0.01025;
19:26:52.476,-1.07300,-0.18726,0.04468;
19:26:52.486,-1.15210,-0.08545,0.04175;
19:26:52.496,-1.22754,-0.04785,-0.06421;
19:26:52.506,-1.30957,-0.03955,-0.23120;
19:26:52.516,-1.43579,-0.02393,-0.34155;
19:26:52.526,-1.58911,0.01611,-0.39160;
19:26:52.536,-1.72900,0.00610,-0.33594;
19:26:52.546,-1.94214,-0.06958,0.16016;
19:26:52.556,-2.06812,0.07104,0.27124;
19:26:52.566,-1.86523,0.20068,0.15869;
19:26:52.576,-1.62036,0.33472,0.10400;
19:26:52.586,-1.20654,0.17554,-0.21533;
19:26:52.596,-0.63281,-0.41943,-0.23364;
19:26:52.606,-0.32764,-0.92188,-0.15186;
19:26:52.616,-0.15991,-0.86255,-0.08057;
19:26:52.626,-0.18066,0.67944,-0.44824;
19:26:52.636,-0.25171,1.91895,-0.35718;
19:26:52.646,-0.64868,1.15161,0.00879;
19:26:52.656,-0.68481,0.88330,0.02686;
19:26:52.666,-0.73853,0.90356,-0.13135;
19:26:52.676,-0.72998,0.88281,-0.17896;
19:26:52.686,-0.76123,0.86157,-0.27612;
19:26:52.696,-0.79736,0.74854,-0.31030;
19:26:52.706,-0.87769,0.55029,-0.35107;
19:26:52.716,-0.94727,0.28809,-0.33716;
19:26:52.726,-1.01880,0.06665,-0.30371;
19:26:52.736,-1.02734,-0.04712,-0.24365;
19:26:52.746,-1.08838,-0.10986,-0.20825;
19:26:52.756,-1.24219,-0.28857,-0.18213;
19:26:52.766,-1.38623,-0.59790,-0.11865;
19:26:52.776,-1.50195,-0.96191,-0.01074;
19:26:52.786,-1.54321,-1.34448,0.10327;
19:26:52.796,-1.43481,-1.71509,0.20898;
19:26:52.806,-1.21606,-1.96924,0.29150;
19:26:52.816,-1.02588,-2.01416,0.36670;
19:26:52.826,-1.16016,-1.72461,0.50952;
19:26:52.836,-1.04517,-1.70776,1.19263;
19:26:52.846,-1.44849,-0.41626,0.70044;
19:26:52.856,-1.80713,1.68188,-0.41479;
19:26:52.866,-1.15234,1.98511,-0.00098;
19:26:52.876,-1.08301,1.19556,0.70557;
19:26:52.886,-1.27490,0.32007,0.40161;
19:26:52.896,-1.00830,-0.12402,-0.20923;
19:26:52.906,-0.82373,-0.07397,-0.26978;
19:26:52.916,-1.03271,0.22729,-0.10132;
19:26:52.926,-1.22095,0.40186,0.24683;
19:26:52.936,-1.70459,-1.25659,0.13501;
19:26:52.946,-1.62329,-1.27148,0.18018;
19:26:52.956,-0.94629,-0.10938,-0.17041;
19:26:52.966,-0.50439,0.58325,-0.14380;
19:26:52.976,-0.62939,0.57837,0.07031;
19:26:52.986,-0.93628,-0.01172,-0.06323;
19:26:52.996,-1.10010,-0.34302,0.03589;
19:26:53.006,-1.08179,0.15796,0.00562;
19:26:53.016,-1.04712,0.11646,-0.04663;
19:26:53.026,-0.95532,-0.06323,-0.12109;
19:26:53.036,-0.89136,-0.08057,-0.09839;
19:26:53.046,-0.92798,-0.05493,-0.03027;
19:26:53.056,-0.96069,-0.10767,0.02759;
19:26:53.066,-0.98804,-0.10522,0.00659;
19:26:53.076,-0.97290,-0.05762,-0.07227;
19:26:53.086,-0.96045,-0.04883,-0.07666;
19:26:53.096,-0.99463,-0.01587,-0.02783;
19:26:53.106,-1.01050,-0.01733,0.00024;
19:26:53.116,-1.00708,-0.08032,0.02515;
19:26:53.126,-1.02002,-0.10718,0.03491;
19:26:53.136,-1.02930,-0.09741,0.02563;
19:26:53.146,-1.01270,-0.07007,0.02051;
19:26:53.156,-0.94434,-0.10791,0.03247;
19:26:53.166,-0.89697,-0.17114,0.05396;
19:26:53.176,-0.90381,-0.21094,0.06299;
19:26:53.186,-0.92969,-0.23218,0.09253;
19:26:53.196,-0.96851,-0.19043,0.11987;
19:26:53.206,-1.01685,-0.12915,0.07007;
19:26:53.216,-1.05322,-0.05518,-0.02075;
19:26:53.226,-1.10278,0.00122,-0.05981;
19:26:53.236,-1.02930,-0.16089,-0.01440;
19:26:53.246,-0.96997,-0.21387,0.05981;
19:26:53.256,-0.95605,-0.21851,0.05054;
19:26:53.266,-0.94946,-0.19629,-0.00049;
19:26:53.276,-0.95166,-0.18579,-0.03687;
19:26:53.286,-0.95947,-0.18872,-0.01221;
19:26:53.296,-0.96289,-0.21802,0.04102;
19:26:53.306,-0.95972,-0.24292,0.05566;
19:26:53.316,-0.95483,-0.21826,0.04175;
19:26:53.326,-0.97925,-0.17017,0.01685;
19:26:53.336,-1.01563,-0.14722,-0.01245;
19:26:53.346,-1.03809,-0.15381,-0.01855;
19:26:53.356,-1.02979,-0.17603,0.01514;
19:26:53.366,-1.00903,-0.21069,0.04541;
19:26:53.376,-0.98486,-0.21826,0.03809;
19:26:53.386,-0.96802,-0.20703,-0.00171;
19:26:53.396,-0.95215,-0.18286,0.02856;
19:26:53.406,-0.98413,-0.23340,0.04053;
19:26:53.416,-0.98828,-0.19165,0.01465;
19:26:53.426,-1.00757,-0.19019,0.01563;
19:26:53.436,-0.99854,-0.17407,0.00391;
19:26:53.446,-0.93750,-0.19458,-0.00073;
19:26:53.456,-0.98877,-0.20630,0.02832;
19:26:53.466,-0.99976,-0.18823,-0.00244;
19:26:53.476,-0.98511,-0.16821,0.00415;
19:26:53.486,-0.98096,-0.17847,0.02026;
19:26:53.496,-0.97803,-0.18506,0.02393;
19:26:53.506,-0.98242,-0.18774,0.02588;
19:26:53.516,-0.99561,-0.18579,0.03418;
19:26:53.526,-1.00659,-0.17188,0.03955;
19:26:53.536,-1.00684,-0.16528,0.02441;
19:26:53.546,-0.98267,-0.16064,0.00903;
19:26:53.556,-0.97021,-0.17603,0.00928;
19:26:53.566,-0.98315,-0.19360,0.01294;
19:26:53.576,-0.99463,-0.19629,0.02515;
19:26:53.586,-1.00610,-0.19409,0.02515;
19:26:53.596,-0.99634,-0.16846,0.00610;
19:26:53.606,-0.96826,-0.16113,-0.00073;
19:26:53.616,-0.97925,-0.18237,0.01392;
19:26:53.626,-0.99121,-0.19238,0.02856;
19:26:53.636,-0.99780,-0.18945,0.05176;
19:26:53.646,-1.00464,-0.18726,0.05811;
19:26:53.656,-0.99780,-0.18066,0.04370;
19:26:53.666,-0.98462,-0.17188,0.02759;
19:26:53.676,-0.96411,-0.19214,0.02466;
19:26:53.686,-0.96558,-0.21069,0.03174;
19:26:53.696,-0.96484,-0.19897,0.03564;
19:26:53.706,-0.95532,-0.17944,0.04224;
19:26:53.716,-0.94092,-0.17065,0.03809;
19:26:53.726,-0.93848,-0.18433,0.03247;
19:26:53.736,-0.96655,-0.17822,0.03052;
19:26:53.746,-1.01538,-0.15186,0.02002;
19:26:53.756,-1.03296,-0.14233,0.01465;
19:26:53.766,-1.01196,-0.14160,0.03345;
19:26:53.776,-0.99512,-0.13818,0.05615;
19:26:53.786,-0.98413,-0.15625,0.05396;
19:26:53.796,-0.97290,-0.16895,0.04834;
19:26:53.806,-0.97485,-0.16138,0.06079;
19:26:53.816,-0.99805,-0.16650,0.07080;
19:26:53.826,-1.00610,-0.16675,0.06982;
19:26:53.836,-1.00488,-0.16211,0.05835;
19:26:53.846,-0.99536,-0.16333,0.04980;
19:26:53.856,-0.98120,-0.16333,0.05322;
19:26:53.866,-0.98193,-0.16772,0.06201;
19:26:53.876,-0.97607,-0.17798,0.06616;
19:26:53.886,-0.97144,-0.17871,0.06250;
19:26:53.896,-0.97607,-0.17310,0.06250;
19:26:53.906,-0.97925,-0.17212,0.06592;
19:26:53.916,-0.98364,-0.16309,0.06104;
19:26:53.926,-0.99243,-0.15112,0.06030;
19:26:53.936,-1.01001,-0.15454,0.05762;
19:26:53.946,-1.00488,-0.15576,0.05103;
19:26:53.956,-1.00244,-0.14185,0.05347;
19:26:53.966,-1.00073,-0.15063,0.05322;
19:26:53.976,-0.98096,-0.17065,0.05469;
19:26:53.986,-0.98779,-0.15942,0.04150;
19:26:53.996,-0.99438,-0.14868,0.04175;
19:26:54.006,-0.99097,-0.15405,0.05713;
19:26:54.016,-0.98047,-0.15894,0.06201;
19:26:54.026,-0.97705,-0.16187,0.06372;
19:26:54.036,-0.98828,-0.16162,0.05908;
19:26:54.046,-0.98755,-0.16089,0.05518;
19:26:54.056,-0.98877,-0.15527,0.05249;
19:26:54.066,-0.99854,-0.14258,0.04810;
19:26:54.076,-0.99756,-0.15454,0.04639;
19:26:54.086,-0.99170,-0.16528,0.04712;
19:26:54.096,-0.99683,-0.15674,0.05811;
19:26:54.106,-0.99316,-0.15479,0.07520;
19:26:54.116,-0.98267,-0.15747,0.06934;
19:26:54.126,-0.96973,-0.16968,0.05273;
19:26:54.136,-0.97803,-0.17065,0.05103;
19:26:54.146,-0.99170,-0.16089,0.04736;
19:26:54.156,-0.99536,-0.15576,0.04736;
19:26:54.166,-1.00415,-0.14893,0.05273;
19:26:54.176,-0.98242,-0.15161,0.06470;
19:26:54.186,-0.97217,-0.16919,0.07617;
19:26:54.196,-0.97925,-0.18164,0.07275;
19:26:54.206,-0.98657,-0.18066,0.06982;
19:26:54.216,-0.99536,-0.16089,0.05371;
19:26:54.226,-0.99561,-0.15332,0.05420;
19:26:54.236,-0.98340,-0.16089,0.07227;
19:26:54.246,-0.96826,-0.16113,0.07544;
19:26:54.256,-0.96680,-0.16284,0.07910;
19:26:54.266,-0.99170,-0.16724,0.07373;
19:26:54.276,-1.01489,-0.16113,0.05371;
19:26:54.286,-1.02100,-0.14307,0.03857;
19:26:54.296,-1.00635,-0.14233,0.03467;
19:26:54.306,-0.96338,-0.14526,0.04492;
19:26:54.316,-0.95996,-0.15625,0.06934;
19:26:54.326,-0.99316,-0.16235,0.07153;
19:26:54.336,-1.01880,-0.15796,0.07544;
19:26:54.346,-1.01294,-0.15576,0.08423;
19:26:54.356,-0.98755,-0.16260,0.07349;
19:26:54.366,-0.96655,-0.16968,0.06714;
19:26:54.376,-0.96411,-0.17285,0.05103;
19:26:54.386,-0.97900,-0.17432,0.04395;
19:26:54.396,-0.98950,-0.16772,0.06104;
19:26:54.406,-1.00269,-0.17603,0.08862;
19:26:54.416,-1.01245,-0.19165,0.10181;
19:26:54.426,-1.00537,-0.19238,0.08643;
19:26:54.436,-0.99463,-0.19092,0.07446;
19:26:54.446,-0.97607,-0.18115,0.07764;
19:26:54.456,-0.96484,-0.18506,0.08667;
19:26:54.466,-0.97119,-0.19604,0.09277;
19:26:54.476,-0.97021,-0.18311,0.08911;
19:26:54.486,-0.97046,-0.16870,0.07910;
19:26:54.496,-0.94238,-0.15430,0.07593;
19:26:54.506,-0.89526,-0.17529,0.10449;
19:26:54.516,-0.92676,-0.18872,0.13135;
19:26:54.526,-1.00488,-0.14478,0.08423;
19:26:54.536,-1.04810,-0.12036,0.03296;
19:26:54.546,-1.05322,-0.10889,0.03125;
19:26:54.556,-1.03760,-0.10889,0.05688;
19:26:54.566,-1.00586,-0.12964,0.09302;
19:26:54.576,-0.98389,-0.14575,0.10522;
19:26:54.586,-0.97729,-0.13818,0.09692;
19:26:54.596,-0.94604,-0.13672,0.14478;
19:26:54.606,-0.97876,-0.12036,0.10400;
19:26:54.616,-1.00415,-0.08984,0.08325;
19:26:54.626,-1.00415,-0.09766,0.09277;
19:26:54.636,-0.96509,-0.10034,0.12305;
19:26:54.646,-0.95679,-0.09595,0.12378;
19:26:54.656,-1.00000,-0.05786,0.10913;
19:26:54.666,-0.99146,-0.04810,0.09644;
19:26:54.676,-0.97339,-0.07349,0.10522;
19:26:54.686,-0.96606,-0.07153,0.13525;
19:26:54.696,-0.98364,-0.04053,0.12793;
19:26:54.706,-1.01587,-0.00439,0.08105;
19:26:54.716,-1.05273,0.06445,0.06738;
19:26:54.726,-1.09766,0.12305,0.08130;
19:26:54.736,-1.06592,0.04614,0.15381;
19:26:54.746,-1.01978,0.02710,0.17358;
19:26:54.756,-1.00684,0.03760,0.18408;
19:26:54.766,-1.01196,0.07715,0.18042;
19:26:54.776,-1.01270,0.10059,0.21118;
19:26:54.786,-1.02295,0.10327,0.24170;
19:26:54.796,-0.99902,0.15283,0.17944;
19:26:54.806,-0.94385,0.14917,0.05225;
19:26:54.816,-0.99902,0.21973,-0.08008;
19:26:54.826,-1.15601,0.37744,-0.04150;
19:26:54.836,-1.27051,0.39233,0.15063;
19:26:54.846,-1.37427,0.42773,0.16357;
19:26:54.856,-1.53394,0.38892,0.14551;
19:26:54.866,-1.59033,0.43579,0.44824;
19:26:54.876,-1.78931,0.53418,0.82422;
19:26:54.886,-1.82397,0.50830,0.85376;
19:26:54.896,-1.59717,0.56299,0.78003;
19:26:54.906,-1.38794,0.62061,0.54834;
19:26:54.916,-0.85278,0.32935,0.22461;
19:26:54.926,-0.45239,-0.23755,0.14844;
19:26:54.936,-0.48364,-0.57935,0.22290;
19:26:54.946,-0.58984,-0.50195,0.19312;
19:26:54.956,-0.47559,-0.01807,-0.10303;
19:26:54.966,-0.07251,0.95068,-0.11475;
19:26:54.976,-0.08594,1.54688,0.29077;
19:26:54.986,-0.15552,1.63306,0.11206;
19:26:54.996,-0.36572,1.15625,0.18579;
19:26:55.006,-0.54199,0.84229,0.17358;
19:26:55.016,-0.80811,0.62671,0.07861;
19:26:55.026,-0.90601,0.53027,-0.04053;
19:26:55.036,-0.94946,0.35620,-0.14087;
19:26:55.046,-0.99658,0.08521,-0.25781;
19:26:55.056,-1.06738,-0.25635,-0.25269;
19:26:55.066,-1.10181,-0.65674,-0.17822;
19:26:55.076,-1.12305,-1.10889,-0.10083;
19:26:55.086,-1.09717,-1.55713,-0.02930;
19:26:55.096,-1.01733,-1.93506,0.02417;
19:26:55.106,-1.16333,-2.14233,0.59204;
19:26:55.116,-1.03979,-2.72485,1.64917;
19:26:55.126,-1.14941,-1.86694,1.61597;
19:26:55.136,-1.63135,1.13232,0.22607;
19:26:55.146,-1.83716,3.01538,-1.18652;
19:26:55.156,-1.93970,2.14575,-0.83765;
19:26:55.166,-1.79175,0.00464,0.03174;
19:26:55.176,-1.35571,-1.22168,0.00415;
19:26:55.186,-0.72754,-0.85254,0.37183;
19:26:55.196,-0.58521,0.07861,0.81177;
19:26:55.206,-0.94653,0.09595,0.27686;
19:26:55.216,-1.12402,-0.68945,-0.54272;
19:26:55.226,-1.14746,-0.95459,-0.33374;
19:26:55.236,-0.97192,-0.34985,0.25366;
19:26:55.246,-1.01831,-0.25415,-0.05347;
19:26:55.256,-0.95288,-0.43823,-0.35693;
19:26:55.266,-0.80103,-0.27075,-0.17773;
19:26:55.276,-1.09033,-0.14697,-0.06812;
19:26:55.286,-1.12427,-0.13989,-0.02368;
19:26:55.296,-1.03931,-0.08179,0.01172;
19:26:55.306,-0.99609,-0.06885,0.04883;
19:26:55.316,-1.01050,-0.05591,-0.03198;
19:26:55.326,-1.00073,-0.05029,-0.07129;
19:26:55.336,-1.00488,-0.07007,-0.08691;
19:26:55.346,-1.01294,-0.09253,-0.10376;
19:26:55.356,-1.01147,-0.06812,-0.13306;
19:26:55.366,-1.00244,-0.03931,-0.13501;
19:26:55.376,-0.99023,-0.06763,-0.11353;
19:26:55.386,-0.98511,-0.06323,-0.11279;
19:26:55.396,-0.98145,-0.02393,-0.15405;
19:26:55.406,-0.99243,-0.04883,-0.18970;
19:26:55.416,-0.97070,-0.15381,-0.18140;
19:26:55.426,-0.92358,-0.22607,-0.19824;
19:26:55.436,-0.92529,-0.17993,-0.18677;
19:26:55.446,-0.97192,-0.03906,-0.21753;
19:26:55.456,-1.01123,0.02319,-0.25684;
19:26:55.466,-1.02148,-0.03613,-0.22021;
19:26:55.476,-1.02539,-0.06958,-0.19214;
19:26:55.486,-1.02075,-0.06909,-0.18457;
19:26:55.496,-1.03613,-0.08618,-0.18164;
19:26:55.506,-1.04980,-0.05103,-0.19092;
19:26:55.516,-1.03052,-0.03223,-0.19678;
19:26:55.526,-1.01367,-0.05078,-0.16357;
19:26:55.536,-1.03345,-0.01563,-0.17310;
19:26:55.546,-1.05786,0.03101,-0.24341;
19:26:55.556,-1.05103,-0.02173,-0.24561;
19:26:55.566,-1.04785,-0.14966,-0.18872;
19:26:55.576,-1.04370,-0.18750,-0.06958;
19:26:55.586,-1.08618,-0.17236,0.07471;
19:26:55.596,-1.18677,-0.15674,0.14282;
19:26:55.606,-1.23779,-0.02222,0.20288;
19:26:55.616,-1.38159,0.18506,0.06177;
19:26:55.626,-1.69531,0.49707,0.30420;
19:26:55.636,-2.71875,1.10400,0.47656;
19:26:55.646,-2.70581,1.38574,0.06006;
19:26:55.656,-1.80444,0.11719,-0.17041;
19:26:55.666,-0.98315,-0.68140,0.06445;
19:26:55.676,-0.94141,-0.76855,0.36768;
19:26:55.686,-0.81372,-0.76172,0.39063;
19:26:55.696,-0.55688,-0.65503,-0.01733;
19:26:55.706,-0.71411,-0.01367,-0.67651;
19:26:55.716,-0.55249,1.14575,-0.38306;
19:26:55.726,-0.38159,1.25781,0.03271;
19:26:55.736,-0.24707,0.75439,0.31079;
19:26:55.746,-0.22437,0.45068,0.43579;
19:26:55.756,-0.19824,0.35327,0.53052;
19:26:55.766,-0.24805,0.36182,0.48657;
19:26:55.776,-0.29492,0.31812,0.48535;
19:26:55.786,-0.40698,0.19946,0.43774;
19:26:55.796,-0.50464,0.09717,0.39502;
19:26:55.806,-0.62744,0.16138,0.29492;
19:26:55.816,-0.78296,0.32544,0.18701;
19:26:55.826,-0.88989,0.28174,0.06665;
19:26:55.836,-1.02783,-0.01538,-0.02734;
19:26:55.846,-1.19214,-0.43555,-0.02710;
19:26:55.856,-1.10571,-0.82886,0.21875;
19:26:55.866,-1.18921,-0.73389,0.37305;
19:26:55.876,-1.34912,-0.63721,0.45239;
19:26:55.886,-1.39941,-0.67822,0.40796;
19:26:55.896,-1.35864,-0.73633,0.32446;
19:26:55.906,-1.39282,-0.66626,0.07788;
19:26:55.916,-1.47266,-0.52026,-0.28784;
19:26:55.926,-1.46704,-0.43237,-0.72510;
19:26:55.936,-1.40503,-0.62012,-0.86914;
19:26:55.946,-1.42920,-1.64429,-0.00439;
19:26:55.956,-2.20630,-3.61816,-1.43066;
19:26:55.966,-2.01172,-3.36035,-2.69702;
19:26:55.976,-0.73340,2.12964,-1.53467;
19:26:55.986,-1.07788,5.17090,-4.65601;
19:26:55.996,-1.74072,1.45703,-5.32104;
19:26:56.006,-1.54395,-0.60767,-3.89673;
19:26:56.016,-1.06226,0.06592,-2.76318;
19:26:56.026,-1.04761,0.23682,-0.35229;
19:26:56.036,-1.20239,-0.09033,0.85913;
19:26:56.046,-1.59424,-0.44800,2.58105;
19:26:56.056,-2.71851,-0.03027,2.69775;
19:26:56.066,-2.96606,0.16382,0.48901;
19:26:56.076,-1.89355,0.41772,-0.21094;
19:26:56.086,-1.17603,0.60962,0.41455;
19:26:56.096,-1.14526,0.08472,0.06812;
19:26:56.106,-1.01416,-0.49048,0.02539;
19:26:56.116,-0.72876,-0.65503,-0.12085;
19:26:56.126,-0.53906,-0.61353,-0.25806;
19:26:56.136,-0.60254,-0.58032,-0.28540;
19:26:56.146,-0.71021,-0.48486,-0.04297;
19:26:56.156,-0.81152,-0.40405,0.22949;
19:26:56.166,-0.95483,-0.32153,0.40015;
19:26:56.176,-1.13892,-0.16162,0.38232;
19:26:56.186,-1.10376,-0.09204,0.23901;
19:26:56.196,-1.00977,-0.04419,0.09106;
19:26:56.206,-0.91187,-0.02783,0.08032;
19:26:56.216,-0.88818,-0.04590,0.09473;
19:26:56.226,-0.91919,-0.08008,-0.01367;
19:26:56.236,-0.91479,-0.07202,-0.11084;
19:26:56.246,-0.86938,-0.08350,-0.12915;
19:26:56.256,-0.79297,-0.17334,-0.13281;
19:26:56.266,-0.77930,-0.27246,-0.18286;
19:26:56.276,-0.81860,-0.29883,-0.20679;
19:26:56.286,-0.78198,-0.30640,-0.15967;
19:26:56.296,-0.74805,-0.34131,-0.15454;
19:26:56.306,-0.77612,-0.23828,-0.23340;
19:26:56.316,-0.82227,-0.03882,-0.18066;
19:26:56.326,-0.92578,0.07153,-0.00342;
19:26:56.336,-1.16748,0.05713,0.14282;
19:26:56.346,-1.18164,0.05127,0.21362;
19:26:56.356,-1.18384,0.05249,0.19312;
19:26:56.366,-1.12915,0.04346,0.05591;
19:26:56.376,-1.08301,0.01221,-0.00757;
19:26:56.386,-1.07373,-0.05835,-0.07886;
19:26:56.396,-1.02905,-0.13647,-0.13086;
19:26:56.406,-0.94092,-0.21631,-0.10571;
19:26:56.416,-0.88623,-0.26416,-0.03955;
19:26:56.426,-0.92407,-0.23706,0.02808;
19:26:56.436,-0.94263,-0.25073,0.11182;
19:26:56.446,-0.91724,-0.36279,0.29907;
19:26:56.456,-0.91553,-0.43677,0.23584;
19:26:56.466,-0.92944,-0.32104,-0.00586;
19:26:56.476,-0.96753,-0.13379,-0.09839;
19:26:56.486,-1.04126,-0.03613,-0.09961;
19:26:56.496,-1.12231,0.05591,-0.04761;
19:26:56.506,-1.18652,0.13867,-0.03711;
19:26:56.516,-1.11353,0.04272,0.04321;
19:26:56.526,-1.04956,0.03101,0.05518;
19:26:56.536,-1.02319,0.04736,-0.02417;
19:26:56.546,-1.03174,0.06836,-0.09180;
19:26:56.556,-1.02905,0.03418,-0.06665;
19:26:56.566,-1.03857,-0.03931,-0.02222;
19:26:56.576,-1.04004,-0.06445,0.00903;
19:26:56.586,-1.01123,-0.03906,-0.01099;
19:26:56.596,-0.97241,0.00146,-0.04419;
19:26:56.606,-0.95630,0.06104,-0.04736;
19:26:56.616,-0.98779,0.10767,-0.00464;
19:26:56.626,-1.00562,0.14038,0.03052;
19:26:56.636,-1.00415,0.14429,-0.00122;
19:26:56.646,-1.00684,0.09839,-0.03149;
19:26:56.656,-1.00000,0.05518,-0.03906;
19:26:56.666,-0.98511,0.07104,-0.06616;
19:26:56.676,-0.96021,0.14233,-0.10522;
19:26:56.686,-0.97559,0.19580,-0.16748;
19:26:56.696,-1.01172,0.23120,-0.16602;
19:26:56.706,-1.03735,0.22461,-0.08643;
19:26:56.716,-1.03491,0.11914,0.01489;
19:26:56.726,-1.02441,-0.00024,0.08643;
19:26:56.736,-1.04077,-0.04175,0.11450;
19:26:56.746,-1.05762,-0.00879,0.15088;
19:26:56.756,-1.03784,0.02734,0.25537;
19:26:56.766,-1.02905,-0.20630,0.55737;
19:26:56.776,-1.09595,0.04688,0.32275;
19:26:56.786,-1.07397,-0.19873,0.13843;
19:26:56.796,-1.00903,-0.23633,0.21460;
19:26:56.806,-0.98730,-0.11768,-0.04053;
19:26:56.816,-1.01709,0.00415,0.03711;
19:26:56.826,-1.02881,-0.00220,-0.03540;
19:26:56.836,-1.01367,-0.09863,0.00903;
19:26:56.846,-1.00952,-0.13696,0.08765;
19:26:56.856,-0.98169,-0.16138,0.13672;
19:26:56.866,-0.95483,-0.22192,0.17847;
19:26:56.876,-0.96265,-0.29736,0.22925;
19:26:56.886,-1.00586,-0.36670,0.25708;
19:26:56.896,-1.04639,-0.42749,0.25513;
19:26:56.906,-1.06006,-0.47046,0.25488;
19:26:56.916,-1.04712,-0.49121,0.26978;
19:26:56.926,-1.03662,-0.48022,0.27393;
19:26:56.936,-1.03784,-0.44702,0.26489;
19:26:56.946,-1.04321,-0.43042,0.26953;
19:26:56.956,-1.02905,-0.41455,0.29956;
19:26:56.966,-1.01025,-0.35107,0.33936;
19:26:56.976,-0.99463,-0.27515,0.37598;
19:26:56.986,-0.97510,-0.22852,0.42529;
19:26:56.996,-0.95239,-0.17358,0.50122;
19:26:57.006,-0.90039,-0.11230,0.60596;
19:26:57.016,-0.87085,-0.08105,0.69678;
19:26:57.026,-0.87720,-0.09326,0.75244;
19:26:57.036,-0.89844,-0.11450,0.77100;
19:26:57.046,-0.93237,-0.06836,0.77075;
19:26:57.056,-0.93579,-0.01660,0.77808;
19:26:57.066,-0.91797,-0.02344,0.77832;
19:26:57.076,-0.92017,-0.04492,0.77588;
19:26:57.086,-0.93750,-0.02588,0.77710;
19:26:57.096,-0.94165,-0.01001,0.76318;
19:26:57.106,-0.93872,-0.04126,0.74438;
19:26:57.116,-0.95728,-0.05054,0.72437;
19:26:57.126,-0.97803,-0.08838,0.66943;
19:26:57.136,-0.98706,-0.13696,0.62744;
19:26:57.146,-0.97559,-0.12305,0.61938;
19:26:57.156,-0.95435,-0.09277,0.60156;
19:26:57.166,-0.93457,-0.10059,0.55444;
19:26:57.176,-0.92578,-0.12354,0.49927;
19:26:57.186,-0.91187,-0.11890,0.46509;
19:26:57.196,-0.89307,-0.09351,0.44263;
19:26:57.206,-0.87329,-0.06860,0.40674;
19:26:57.216,-0.84302,-0.05127,0.36353;
19:26:57.226,-0.81226,-0.02539,0.32739;
19:26:57.236,-0.77173,-0.00952,0.30713;
19:26:57.246,-0.75220,-0.02002,0.25757;
19:26:57.256,-0.71826,-0.03418,0.17822;
19:26:57.266,-0.66431,-0.01416,0.11426;
19:26:57.276,-0.61963,0.07349,0.06519;
19:26:57.286,-0.56812,0.17188,0.02637;
19:26:57.296,-0.50342,0.20728,-0.01831;
19:26:57.306,-0.45093,0.20117,-0.04858;
19:26:57.316,-0.51685,0.19385,0.00171;
19:26:57.326,-0.64502,0.16675,-0.05884;
19:26:57.336,-0.72900,0.04419,-0.12476;
19:26:57.346,-0.77148,-0.05029,-0.19482;
19:26:57.356,-0.85352,-0.14722,-0.31250;
19:26:57.366,-0.91650,-0.21045,-0.44971;
19:26:57.376,-1.00879,-0.47095,-0.34717;
19:26:57.386,-1.30225,-2.10254,0.62646;
19:26:57.396,-1.53979,-3.86011,0.11279;
19:26:57.406,-1.20996,-2.92627,-0.56372;
19:26:57.416,-0.81152,0.88232,-1.27563;
19:26:57.426,-0.70239,2.66821,-1.67017;
19:26:57.436,-1.47754,0.45532,-0.72705;
19:26:57.446,-1.94702,-0.62158,-0.85449;
19:26:57.456,-1.66235,0.15283,-0.30933;
19:26:57.466,-1.86377,0.52197,0.15674;
19:26:57.476,-1.84692,0.28638,0.87036;
19:26:57.486,-2.46167,0.20386,0.56763;
19:26:57.496,-2.17822,0.42456,-0.61279;
19:26:57.506,-1.58984,0.44312,-0.31006;
19:26:57.516,-1.27905,-0.01465,-0.15308;
19:26:57.526,-1.09595,-0.32300,0.05200;
19:26:57.536,-0.92529,-0.36450,-0.03687;
19:26:57.546,-0.81592,-0.38818,-0.08960;
19:26:57.556,-0.74634,-0.52100,0.10669;
19:26:57.566,-0.72754,-0.56787,0.48096;
19:26:57.576,-0.75586,-0.48047,0.54688;
19:26:57.586,-0.87012,-0.33130,0.48804;
19:26:57.596,-0.99854,-0.12866,0.34277;
19:26:57.606,-1.06738,0.03369,0.24731;
19:26:57.616,-1.04858,0.09375,0.29492;
19:26:57.626,-0.99438,0.07739,0.34180;
19:26:57.636,-0.90845,0.01685,0.32300;
19:26:57.646,-0.80688,-0.06763,0.24487;
19:26:57.656,-0.75952,-0.12622,0.14038;
19:26:57.666,-0.75464,-0.14526,0.01001;
19:26:57.676,-0.74023,-0.12891,-0.08350;
19:26:57.686,-0.72656,-0.15820,-0.08521;
19:26:57.696,-0.73047,-0.17993,-0.03979;
19:26:57.706,-0.74243,-0.16528,-0.00562;
19:26:57.716,-0.75952,-0.17212,0.04639;
19:26:57.726,-0.77490,-0.13135,0.11182;
19:26:57.736,-0.81641,-0.08032,0.12427;
19:26:57.746,-0.87695,-0.03198,0.09839;
19:26:57.756,-0.96265,0.10107,0.12012;
19:26:57.766,-1.08276,0.23193,0.37329;
19:26:57.776,-1.31079,0.18848,0.22339;
19:26:57.786,-1.36328,0.43286,0.06860;
19:26:57.796,-1.31348,0.41284,-0.02515;
19:26:57.806,-1.20313,0.13647,-0.08423;
19:26:57.816,-1.11841,-0.01904,-0.14697;
19:26:57.826,-1.03394,0.00171,-0.12036;
19:26:57.836,-1.00586,0.05029,-0.09937;
19:26:57.846,-1.01025,0.07349,-0.06836;
19:26:57.856,-1.03931,0.06421,-0.06445;
19:26:57.866,-1.07886,-0.03125,-0.01831;
19:26:57.876,-1.08398,-0.16772,0.12207;
19:26:57.886,-1.08862,-0.17017,0.23730;
19:26:57.896,-1.13965,-0.08130,0.29248;
19:26:57.906,-1.18945,-0.01318,0.37329;
19:26:57.916,-1.25928,0.04492,0.48413;
19:26:57.926,-1.30615,0.11694,0.63477;
19:26:57.936,-1.33716,0.11963,0.68311;
19:26:57.946,-1.24927,0.04712,0.68896;
19:26:57.956,-1.13330,-0.00391,0.64429;
19:26:57.966,-1.02344,-0.10522,0.64380;
19:26:57.976,-0.91870,-0.82495,0.44971;
19:26:57.986,-0.98608,-1.04395,0.10132;
19:26:57.996,-0.95703,-0.74023,0.62378;
19:26:58.006,-0.75244,-0.50122,0.37817;
19:26:58.016,-0.82886,-0.46216,0.38062;
19:26:58.026,-0.75366,-0.31323,0.62061;
19:26:58.036,-0.76318,-0.46436,0.55957;
19:26:58.046,-0.76123,-0.34155,0.50317;
19:26:58.056,-0.75537,-0.07373,0.49316;
19:26:58.066,-0.76660,0.08423,0.38940;
19:26:58.076,-0.76831,0.10010,0.23511;
19:26:58.086,-0.75439,0.14966,0.12012;
19:26:58.096,-0.75732,0.27832,0.01367;
19:26:58.106,-0.78687,0.43701,-0.14087;
19:26:58.116,-0.80908,0.51514,-0.31104;
19:26:58.126,-0.82251,0.44897,-0.47192;
19:26:58.136,-0.76050,-0.40649,-0.61963;
19:26:58.146,-0.93628,-0.38110,-0.76904;
19:26:58.156,-0.61426,2.90869,-1.91089;
19:26:58.166,-1.16772,2.16138,-2.39526;
19:26:58.176,-1.56714,-0.09888,-2.32300;
19:26:58.186,-1.63281,-1.12378,-1.68506;
19:26:58.196,-1.33130,0.00000,-1.21436;
19:26:58.206,-0.96387,0.66968,-0.82935;
19:26:58.216,-1.08569,0.19458,-0.40674;
19:26:58.226,-1.29834,-0.09790,-0.03174;
19:26:58.236,-1.44653,1.03931,2.73364;
19:26:58.246,-2.11792,0.68530,2.57104;
19:26:58.256,-2.23926,-0.16528,0.43994;
19:26:58.266,-1.48828,0.76367,0.80078;
19:26:58.276,-1.22827,0.55640,0.10522;
19:26:58.286,-1.06763,0.00684,-0.44214;
19:26:58.296,-1.01196,0.23682,-0.27393;
19:26:58.306,-1.07935,-0.01636,-0.15161;
19:26:58.316,-0.97729,-0.08374,0.20728;
19:26:58.326,-0.98926,-0.03271,0.33276;
19:26:58.336,-0.99023,-0.03613,0.33862;
19:26:58.346,-0.96289,-0.02100,0.24658;
19:26:58.356,-0.94971,-0.01221,0.16724;
19:26:58.366,-0.95972,-0.05127,0.09204;
19:26:58.376,-0.96533,-0.10010,0.01587;
19:26:58.386,-0.96631,-0.12378,-0.03247;
19:26:58.396,-0.96826,-0.10376,-0.00073;
19:26:58.406,-0.96509,-0.10620,0.06348;
19:26:58.416,-0.96802,-0.10327,0.09546;
19:26:58.426,-0.99365,-0.05542,0.04175;
19:26:58.436,-1.01636,-0.02637,-0.05347;
19:26:58.446,-1.04053,-0.01050,-0.09619;
19:26:58.456,-1.08032,-0.03198,-0.10083;
19:26:58.466,-1.09204,-0.09985,-0.09985;
19:26:58.476,-1.06226,-0.12207,-0.07251;
19:26:58.486,-1.06738,-0.08838,-0.05859;
19:26:58.496,-1.22900,0.04224,-0.17017;
19:26:58.506,-1.47729,0.19116,-0.26563;
19:26:58.516,-1.81982,0.19800,-0.29199;
19:26:58.526,-2.17603,0.19019,-0.32959;
19:26:58.536,-2.13232,0.13989,-0.21899;
19:26:58.546,-1.82056,-0.11255,-0.02832;
19:26:58.556,-1.51929,-0.46704,0.12793;
19:26:58.566,-1.18164,-0.59058,0.34009;
19:26:58.576,-1.02417,-0.82300,0.49341;
19:26:58.586,-1.08447,-1.17944,0.52612;
19:26:58.596,-1.04688,-1.12549,0.58740;
19:26:58.606,-1.09448,-0.24707,0.91919;
19:26:58.616,-1.08423,0.36328,0.04150;
19:26:58.626,-0.54077,0.42554,0.02026;
19:26:58.636,-0.68701,0.85034,0.28027;
19:26:58.646,-0.34155,1.65625,-0.19971;
19:26:58.656,-0.37012,1.53198,-0.41382;
19:26:58.666,-0.39478,1.12744,-0.38794;
19:26:58.676,-0.50781,0.70166,-0.35693;
19:26:58.686,-0.61157,0.63330,-0.22046;
19:26:58.696,-0.75415,0.68433,-0.20752;
19:26:58.706,-0.86304,0.57007,-0.18848;
19:26:58.716,-1.01440,0.34131,-0.19165;
19:26:58.726,-1.35205,-0.07813,-0.20386;
19:26:58.736,-1.39844,-0.22510,-0.16602;
19:26:58.746,-1.40967,-0.33887,-0.10400;
19:26:58.756,-1.39453,-0.35352,-0.05762;
19:26:58.766,-1.34375,-0.14844,-0.09180;
19:26:58.776,-1.24390,0.24927,-0.21265;
19:26:58.786,-1.13672,0.61108,-0.49683;
19:26:58.796,-1.05981,0.79736,-0.88184;
19:26:58.806,-0.98267,0.87793,-1.19971;
19:26:58.816,-1.11792,-2.68018,-0.93286;
19:26:58.826,-3.09912,-6.40332,-0.97217;
19:26:58.836,-2.40259,-5.15601,-1.85205;
19:26:58.846,0.12207,0.16748,-2.93188;
19:26:58.856,0.88965,4.76196,-3.53760;
19:26:58.866,-0.33521,2.67358,-3.18311;
19:26:58.876,-1.26538,-1.54834,-2.03271;
19:26:58.886,-0.73267,-1.91113,-0.95898;
19:26:58.896,-0.82153,-0.46021,-0.21851;
19:26:58.906,-0.81909,-0.16895,0.56079;
19:26:58.916,-1.13086,-0.31323,0.84497;
19:26:58.926,-1.43579,-0.14502,0.81348;
19:26:58.936,-1.77173,0.28735,1.00244;
19:26:58.946,-1.95850,0.41431,1.16992;
19:26:58.956,-1.96924,0.23560,0.65723;
19:26:58.966,-1.51758,0.09424,0.20923;
19:26:58.976,-1.26465,0.06030,0.11401;
19:26:58.986,-1.17114,0.02490,0.08179;
19:26:58.996,-1.15137,-0.06665,0.08252;
19:26:59.006,-1.20068,-0.18237,-0.01147;
19:26:59.016,-1.16968,-0.21704,-0.04834;
19:26:59.026,-1.05957,-0.25977,-0.05078;
19:26:59.036,-0.94165,-0.31494,-0.00757;
19:26:59.046,-0.87646,-0.31348,0.04736;
19:26:59.056,-0.85767,-0.25977,0.14453;
19:26:59.066,-0.81860,-0.23096,0.20947;
19:26:59.076,-0.85791,-0.19897,0.12109;
19:26:59.086,-0.94653,-0.14478,-0.06323;
19:26:59.096,-0.98340,-0.07959,-0.22461;
19:26:59.106,-1.01221,-0.02100,-0.29346;
19:26:59.116,-1.02661,-0.04663,-0.26563;
19:26:59.126,-0.96655,-0.11987,-0.25781;
19:26:59.136,-0.96387,-0.14160,-0.26172;
19:26:59.146,-1.06055,-0.10596,-0.17627;
19:26:59.156,-1.25415,-0.02319,-0.10645;
19:26:59.166,-1.50317,0.04077,-0.04663;
19:26:59.176,-1.63501,0.11060,0.09546;
19:26:59.186,-1.62891,-0.08960,0.36938;
19:26:59.196,-1.17993,-0.95703,0.67822;
19:26:59.206,-1.31763,0.07495,0.78003;
19:26:59.216,-0.87524,0.94751,0.05884;
19:26:59.226,-1.05005,1.16187,-0.32178;
19:26:59.236,-0.65845,1.24854,-0.56226;
19:26:59.246,-0.71948,0.83862,-0.55176;
19:26:59.256,-1.34204,-0.86841,0.03271;
19:26:59.266,-1.34009,-0.76343,0.04858;
19:26:59.276,-1.28516,-0.64453,0.03418;
19:26:59.286,-1.23755,-0.52734,-0.03638;
19:26:59.296,-1.18213,-0.24097,-0.16528;
19:26:59.306,-1.18115,0.18945,-0.38135;
19:26:59.316,-1.21533,0.52734,-0.62036;
19:26:59.326,-1.24829,0.71118,-0.87573;
19:26:59.336,-1.21313,0.82495,-1.12915;
19:26:59.346,-0.96875,-0.19238,-1.05615;
19:26:59.356,-1.82349,-4.53247,-0.90527;
19:26:59.366,-2.55444,-7.28906,-1.91650;
19:26:59.376,-0.94507,-2.75439,-2.01245;
19:26:59.386,0.46143,2.60571,-3.67432;
19:26:59.396,0.42261,3.75269,-3.61353;
19:26:59.406,-0.85498,0.40015,-2.32471;
19:26:59.416,-1.06104,-1.72412,-1.73755;
19:26:59.426,-0.79492,-0.75635,-0.53906;
19:26:59.436,-1.01025,-0.26294,0.20972;
19:26:59.446,-1.03271,-0.03735,1.00952;
19:26:59.456,-1.57251,-0.16553,0.68652;
19:26:59.466,-1.86670,-0.01099,0.85693;
19:26:59.476,-2.05737,0.29492,0.94800;
19:26:59.486,-1.95850,0.38281,0.60718;
19:26:59.496,-1.65601,0.31079,0.26074;
19:26:59.506,-1.35425,0.06982,0.19458;
19:26:59.516,-1.13843,-0.27417,0.10767;
19:26:59.526,-0.95581,-0.44067,0.01636;
19:26:59.536,-0.88843,-0.40210,-0.09180;
19:26:59.546,-0.87988,-0.39722,-0.00195;
19:26:59.556,-0.89551,-0.46338,0.20093;
19:26:59.566,-0.86426,-0.49463,0.34448;
19:26:59.576,-0.85718,-0.49585,0.30151;
19:26:59.586,-0.93701,-0.39648,0.08472;
19:26:59.596,-1.00317,-0.24487,-0.07593;
19:26:59.606,-1.05054,-0.13062,-0.13770;
19:26:59.616,-1.08032,-0.06055,-0.13623;
19:26:59.626,-1.04907,-0.06494,-0.05103;
19:26:59.636,-0.97607,-0.14063,0.02734;
19:26:59.646,-0.91431,-0.21313,0.02075;
19:26:59.656,-0.89600,-0.23486,-0.02002;
19:26:59.666,-0.92090,-0.22656,-0.07520;
19:26:59.676,-0.92261,-0.24780,-0.12817;
19:26:59.686,-0.93359,-0.25317,-0.14355;
19:26:59.696,-0.99927,-0.17847,-0.15967;
19:26:59.706,-1.06787,-0.04712,-0.13525;
19:26:59.716,-1.15845,-0.01318,0.02686;
19:26:59.726,-1.22681,-0.09546,0.15186;
19:26:59.736,-1.17798,-0.20410,0.42432;
19:26:59.746,-1.29932,-0.29565,0.72607;
19:26:59.756,-1.52661,-0.22900,0.69995;
19:26:59.766,-1.52930,-0.14453,0.62280;
19:26:59.776,-1.36743,-0.29102,0.53174;
19:26:59.786,-1.12622,-0.54004,0.46021;
19:26:59.796,-1.00659,-0.85181,0.47827;
19:26:59.806,-1.07837,-1.02441,0.50146;
19:26:59.816,-1.23291,-0.50830,0.60449;
19:26:59.826,-1.37305,0.35083,0.22314;
19:26:59.836,-1.15796,0.80249,-0.27417;
19:26:59.846,-0.91431,1.05884,-0.16919;
19:26:59.856,-0.99536,1.28931,-0.29419;
19:26:59.866,-0.90796,1.36572,-0.54907;
19:26:59.876,-0.74805,1.24170,-0.56641;
19:26:59.886,-0.74121,1.04053,-0.49463;
19:26:59.896,-0.77466,0.88013,-0.42554;
19:26:59.906,-0.78662,0.68799,-0.40210;
19:26:59.916,-0.79517,0.50171,-0.28760;
19:26:59.926,-0.88745,0.42114,-0.20581;
19:26:59.936,-1.01685,0.36328,-0.18848;
19:26:59.946,-1.14795,0.07764,-0.24365;
19:26:59.956,-1.19482,-0.07153,-0.21143;
19:26:59.966,-1.23413,-0.10767,-0.16333;
19:26:59.976,-1.26245,-0.08032,-0.10596;
19:26:59.986,-1.28979,-0.00513,-0.07324;
19:26:59.996,-1.31323,0.11865,-0.08813;
19:27:00.006,-1.32593,0.36230,-0.18726;
19:27:00.016,-1.26733,0.66919,-0.44043;
19:27:00.026,-1.12891,0.84888,-0.72949;
19:27:00.036,-1.07910,-0.05664,-1.40942;
19:27:00.046,-2.13354,-5.12427,-1.49023;
19:27:00.056,-2.66968,-6.28784,-1.67651;
19:27:00.066,-0.90259,-0.90186,-2.24878;
19:27:00.076,0.95850,3.62720,-3.30469;
19:27:00.086,0.51245,3.98755,-3.79663;
19:27:00.096,-0.97314,-0.45654,-2.73804;
19:27:00.106,-1.12207,-1.86523,-1.75220;
19:27:00.116,-0.96387,-0.42163,-0.91260;
19:27:00.126,-1.23975,0.17578,0.20044;
19:27:00.136,-1.75928,0.47559,2.44116;
19:27:00.146,-2.73340,0.23462,2.80151;
19:27:00.156,-2.61597,-0.28198,0.32275;
19:27:00.166,-1.26782,-0.19141,-0.85278;
19:27:00.176,-0.74341,0.42188,-0.17310;
19:27:00.186,-0.98828,0.14966,0.50098;
19:27:00.196,-0.76855,-0.60815,-0.22461;
19:27:00.206,-0.83569,-0.14575,-0.41895;
19:27:00.216,-0.96338,-0.26685,-0.22144;
19:27:00.226,-1.07373,-0.39697,0.04053;
19:27:00.236,-1.21582,-0.39673,0.16064;
19:27:00.246,-1.25879,-0.29346,0.34497;
19:27:00.256,-1.13818,-0.17456,0.46777;
19:27:00.266,-1.05371,-0.13135,0.42236;
19:27:00.276,-1.12085,-0.11279,0.19556;
19:27:00.286,-1.18359,-0.01929,-0.01270;
19:27:00.296,-1.15527,0.10498,-0.10620;
19:27:00.306,-1.06128,0.12500,-0.09839;
19:27:00.316,-1.00317,0.06152,-0.08057;
19:27:00.326,-0.95288,0.00293,-0.08496;
19:27:00.336,-0.88379,-0.08887,-0.10718;
19:27:00.346,-0.87402,-0.16187,-0.17725;
19:27:00.356,-0.88525,-0.18848,-0.22095;
19:27:00.366,-0.86914,-0.22485,-0.15405;
19:27:00.376,-0.86865,-0.26245,-0.07104;
19:27:00.386,-1.02612,-0.13721,-0.07520;
19:27:00.396,-1.25659,0.11353,-0.07324;
19:27:00.406,-1.48413,-0.00488,0.10156;
19:27:00.416,-1.88159,0.04761,0.48267;
19:27:00.426,-1.34497,0.04810,0.51807;
19:27:00.436,-1.07300,-0.78027,0.37354;
19:27:00.446,-1.02100,-1.09375,1.09058;
19:27:00.456,-1.01367,1.21509,-0.12891;
19:27:00.466,-0.61475,1.62793,-0.03149;
19:27:00.476,-0.69653,1.84424,-0.20703;
19:27:00.486,-0.74585,1.90381,-0.55444;
19:27:00.496,-0.59692,1.67993,-0.73608;
19:27:00.506,-0.52588,1.21240,-0.61475;
19:27:00.516,-0.61963,0.76685,-0.42188;
19:27:00.526,-0.75146,0.48755,-0.32007;
19:27:00.536,-0.82715,0.36304,-0.25122;
19:27:00.546,-0.89844,0.27075,-0.17554;
19:27:00.556,-1.02368,0.15088,-0.14502;
19:27:00.566,-1.15820,0.00220,-0.15479;
19:27:00.576,-1.28198,-0.13965,-0.20776;
19:27:00.586,-1.34131,-0.24829,-0.24097;
19:27:00.596,-1.30249,-0.26880,-0.20508;
19:27:00.606,-1.26099,-0.26538,-0.16382;
19:27:00.616,-1.25366,-0.21240,-0.14038;
19:27:00.626,-1.25732,-0.05469,-0.14722;
19:27:00.636,-1.25220,0.14502,-0.24365;
19:27:00.646,-1.23584,0.34033,-0.44702;
19:27:00.656,-1.21313,0.51343,-0.71582;
19:27:00.666,-1.21387,0.64233,-1.01294;
19:27:00.676,-1.21045,-0.03003,-0.99805;
19:27:00.686,-2.11914,-3.34570,-0.92822;
19:27:00.696,-2.76807,-5.85645,-1.75244;
19:27:00.706,-1.47314,-2.83276,-1.83472;
19:27:00.716,-0.40063,1.48950,-2.84229;
19:27:00.726,-0.14111,3.62183,-3.76733;
19:27:00.736,-0.92896,2.22510,-2.95898;
19:27:00.746,-1.30542,-0.60352,-1.96240;
19:27:00.756,-1.11792,-0.93359,-1.04297;
19:27:00.766,-1.10498,-0.13599,-0.36963;
19:27:00.776,-1.05127,0.18237,0.76660;
19:27:00.786,-1.37451,-0.15576,2.12061;
19:27:00.796,-1.74146,-0.55542,2.27734;
19:27:00.806,-1.66040,-0.50220,0.93750;
19:27:00.816,-1.13428,0.04883,0.21826;
19:27:00.826,-1.08276,0.32568,-0.01416;
19:27:00.836,-1.07324,0.08374,-0.26099;
19:27:00.846,-1.04443,-0.20264,-0.33325;
19:27:00.856,-1.01807,-0.22607,-0.18652;
19:27:00.866,-1.00195,-0.18921,-0.07544;
19:27:00.876,-0.94287,-0.26953,-0.06738;
19:27:00.886,-0.94775,-0.34546,-0.01099;
19:27:00.896,-1.01147,-0.30884,0.10815;
19:27:00.906,-0.95435,-0.32690,0.25439;
19:27:00.916,-0.87720,-0.36035,0.30493;
19:27:00.926,-0.83960,-0.30981,0.16626;
19:27:00.936,-0.89966,-0.18872,-0.09521;
19:27:00.946,-0.98047,-0.09155,-0.25122;
19:27:00.956,-0.98267,-0.09058,-0.19946;
19:27:00.966,-0.99292,-0.15015,-0.11475;
19:27:00.976,-0.99658,-0.14600,-0.07642;
19:27:00.986,-0.98389,-0.12305,0.01563;
19:27:00.996,-0.94604,-0.17432,0.25537;
19:27:01.006,-0.88062,-0.32520,0.38574;
19:27:01.016,-0.88354,-0.38354,0.21436;
19:27:01.026,-0.89136,-0.28198,-0.06372;
19:27:01.036,-0.87793,-0.20850,-0.21973;
19:27:01.046,-0.88745,-0.19727,-0.25366;
19:27:01.056,-0.90454,-0.20630,-0.22681;
19:27:01.066,-0.89160,-0.21362,-0.15576;
19:27:01.076,-0.88037,-0.21240,-0.05029;
19:27:01.086,-0.89526,-0.24707,0.07324;
19:27:01.096,-0.89624,-0.30298,0.21460;
19:27:01.106,-0.89551,-0.30981,0.25562;
19:27:01.116,-0.92920,-0.29492,0.13159;
19:27:01.126,-0.95459,-0.24878,0.00220;
19:27:01.136,-0.97070,-0.20874,-0.07300;
19:27:01.146,-0.99634,-0.19434,-0.13354;
19:27:01.156,-1.00659,-0.15332,-0.16357;
19:27:01.166,-1.01416,-0.14673,-0.12915;
19:27:01.176,-1.01685,-0.16211,0.07715;
19:27:01.186,-1.03564,-0.16504,0.14014;
19:27:01.196,-1.02734,-0.16724,0.16040;
19:27:01.206,-1.00073,-0.15674,0.13306;
19:27:01.216,-0.97461,-0.15381,0.04395;
19:27:01.226,-0.92725,-0.13647,-0.03687;
19:27:01.236,-0.89624,-0.07349,-0.06323;
19:27:01.246,-0.94507,-0.03149,-0.11865;
19:27:01.256,-1.00537,-0.02661,-0.16724;
19:27:01.266,-1.03394,-0.04370,-0.12036;
19:27:01.276,-1.04663,-0.08301,-0.02612;
19:27:01.286,-1.03711,-0.11401,0.00293;
19:27:01.296,-1.04004,-0.10034,-0.02295;
19:27:01.306,-1.01343,-0.12109,-0.06836;
19:27:01.316,-0.96729,-0.14551,-0.11084;
19:27:01.326,-0.95679,-0.05957,-0.12915;
19:27:01.336,-0.99976,0.03223,-0.12500;
19:27:01.346,-1.06128,0.05444,-0.10962;
19:27:01.356,-1.17065,0.02271,0.06641;
19:27:01.366,-1.15698,-0.02344,0.15552;
19:27:01.376,-1.13428,-0.04321,0.15137;
19:27:01.386,-1.07593,-0.05664,0.11987;
19:27:01.396,-1.02563,-0.06812,0.04834;
19:27:01.406,-1.06055,-0.01709,-0.09375;
19:27:01.416,-1.10449,0.05249,-0.18506;
19:27:01.426,-1.06543,0.02954,-0.15161;
19:27:01.436,-1.06323,0.03174,-0.14087;
19:27:01.446,-1.11890,0.07397,-0.15503;
19:27:01.456,-1.19629,0.08228,-0.12476;
19:27:01.466,-1.26929,0.10010,-0.08521;
19:27:01.476,-1.34546,0.10693,-0.03589;
19:27:01.486,-1.40503,0.11255,0.00293;
19:27:01.496,-1.44019,0.10742,0.01367;
19:27:01.506,-1.46118,0.06909,0.03125;
19:27:01.516,-1.42749,0.04736,0.04614;
19:27:01.526,-1.30591,-0.00488,0.13452;
19:27:01.536,-1.08594,-0.23071,0.37036;
19:27:01.546,-0.91968,-0.48779,0.61572;
19:27:01.556,-0.87329,-0.70239,0.82300;
19:27:01.566,-0.90112,-0.74146,0.98828;
19:27:01.576,-0.87988,-0.24658,0.98096;
19:27:01.586,-0.65771,0.82324,0.83691;
19:27:01.596,-0.55298,1.37256,0.38916;
19:27:01.606,-0.34790,1.63623,0.01733;
19:27:01.616,-0.17261,1.85596,-0.16895;
19:27:01.626,-0.29346,1.71191,-0.47168;
19:27:01.636,-0.47534,1.07471,-0.54663;
19:27:01.646,-0.93970,0.41016,-0.36816;
19:27:01.656,-1.23413,0.05811,-0.36914;
19:27:01.666,-1.46460,-0.63965,-0.40234;
19:27:01.676,-1.64551,-0.87793,-0.44727;
19:27:01.686,-1.52930,-0.94873,-0.00952;
19:27:01.696,-1.52051,-2.59644,0.12500;
19:27:01.706,-1.14038,-3.98584,1.04395;
19:27:01.716,-0.83838,0.87134,-1.37231;
19:27:01.726,-1.08765,1.18506,-0.06982;
19:27:01.736,-1.30054,-0.90112,0.98804;
19:27:01.746,-1.15527,-0.58350,0.69995;
19:27:01.756,-1.12866,0.57495,0.16431;
19:27:01.766,-1.12207,0.60767,0.22119;
19:27:01.776,-1.09985,-0.05835,0.45605;
19:27:01.786,-1.00269,-0.26636,0.19238;
19:27:01.796,-0.87695,-0.02271,-0.17017;
19:27:01.806,-0.87085,0.06763,-0.25146;
19:27:01.816,-0.87988,-0.13989,-0.13843;
19:27:01.826,-0.89771,-0.12134,-0.13916;
19:27:01.836,-0.95972,0.06250,-0.17749;
19:27:01.846,-1.00244,0.08154,-0.08936;
19:27:01.856,-0.99829,-0.00293,-0.00366;
19:27:01.866,-1.00586,-0.01123,0.04053;
19:27:01.876,-1.01807,0.05591,0.08984;
19:27:01.886,-1.03467,0.10669,0.08838;
19:27:01.896,-1.03467,0.12500,0.05640;
19:27:01.906,-1.03223,0.12378,0.06421;
19:27:01.916,-1.02612,0.09766,0.05029;
19:27:01.926,-1.00830,0.07080,-0.02539;
19:27:01.936,-0.97681,0.05786,-0.09326;
19:27:01.946,-0.96631,0.02026,-0.13232;
19:27:01.956,-0.96631,0.00879,-0.17212;
19:27:01.966,-0.95874,0.07764,-0.24365;
19:27:01.976,-0.96216,0.13940,-0.26733;
19:27:01.986,-0.96826,0.11401,-0.19629;
19:27:01.996,-0.99243,0.12744,-0.16187;
19:27:02.006,-1.01685,0.16895,-0.13379;
19:27:02.016,-1.02661,0.18115,-0.06177;
19:27:02.026,-1.04150,0.13135,-0.02295;
19:27:02.036,-1.02710,0.06201,-0.05176;
19:27:02.046,-1.00586,0.08008,-0.09106;
19:27:02.056,-0.97876,0.08984,-0.13037;
19:27:02.066,-0.95605,0.08740,-0.15674;
19:27:02.076,-0.96582,0.09888,-0.15332;
19:27:02.086,-0.98584,0.10425,-0.15967;
19:27:02.096,-0.99512,0.10376,-0.14014;
19:27:02.106,-0.99805,0.10693,-0.07813;
19:27:02.116,-1.00635,0.08716,-0.04565;
19:27:02.126,-1.00464,0.05371,-0.05884;
19:27:02.136,-1.00708,0.03271,-0.08325;
19:27:02.146,-0.99927,0.02856,-0.17480;
19:27:02.156,-0.97974,0.03882,-0.19189;
19:27:02.166,-0.96948,0.03174,-0.16479;
19:27:02.176,-0.97876,0.01245,-0.12036;
19:27:02.186,-0.99097,0.04126,-0.09155;
19:27:02.196,-1.00146,0.03540,-0.10229;
19:27:02.206,-1.00220,0.02051,-0.09741;
19:27:02.216,-1.00220,0.02637,-0.10376;
19:27:02.226,-1.00903,-0.00513,-0.12891;
19:27:02.236,-0.99902,-0.03003,-0.10059;
19:27:02.246,-0.99194,-0.03613,-0.05908;
19:27:02.256,-0.98877,-0.01660,-0.06689;
19:27:02.266,-0.98071,-0.00171,-0.10352;
19:27:02.276,-0.98047,-0.00317,-0.09692;
19:27:02.286,-0.98950,-0.00854,-0.08350;
19:27:02.296,-0.99072,0.01147,-0.07300;
19:27:02.306,-0.99023,0.03174,-0.05615;
19:27:02.316,-0.99658,0.02783,-0.05249;
19:27:02.326,-1.01196,0.03662,-0.04541;
19:27:02.336,-1.02588,0.00317,-0.03979;
19:27:02.346,-1.01904,-0.01294,-0.04956;
19:27:02.356,-1.00659,-0.00439,-0.05054;
19:27:02.366,-1.00903,-0.01099,-0.05151;
19:27:02.376,-1.01758,-0.00366,-0.09155;
19:27:02.386,-1.00977,0.00903,-0.11597;
19:27:02.396,-0.98486,0.02295,-0.08154;
19:27:02.406,-0.97681,0.03589,-0.07324;
19:27:02.416,-0.99243,0.07349,-0.12109;
19:27:02.426,-1.00562,0.05786,-0.11426;
19:27:02.436,-1.01489,0.03564,-0.08545;
19:27:02.446,-1.01318,0.01245,-0.07593;
19:27:02.456,-1.00366,-0.01196,-0.05054;
19:27:02.466,-0.99512,0.00757,-0.06226;
19:27:02.476,-0.99487,0.01489,-0.11792;
19:27:02.486,-0.99390,-0.00220,-0.16284;
19:27:02.496,-0.97559,-0.00464,-0.13745;
19:27:02.506,-0.96704,0.01587,-0.10889;
19:27:02.516,-0.98364,0.02173,-0.10059;
19:27:02.526,-1.01025,0.02759,-0.09351;
19:27:02.536,-1.02246,0.01074,-0.08887;
19:27:02.546,-1.01880,-0.01611,-0.08081;
19:27:02.556,-1.01196,-0.02002,-0.09790;
19:27:02.566,-0.98877,-0.01685,-0.09497;
19:27:02.576,-0.99121,-0.00977,-0.05640;
19:27:02.586,-1.00293,-0.01074,-0.04248;
19:27:02.596,-1.01367,-0.01440,-0.07666;
19:27:02.606,-1.01367,-0.01685,-0.10645;
19:27:02.616,-1.01099,-0.01611,-0.12402;
19:27:02.626,-1.00977,-0.01563,-0.11914;
19:27:02.636,-1.00806,0.00000,-0.09961;
19:27:02.646,-1.00439,0.02051,-0.10083;
19:27:02.656,-1.01123,0.01270,-0.10010;
19:27:02.666,-1.01978,-0.01392,-0.11670;
19:27:02.676,-1.00146,-0.00122,-0.14966;
19:27:02.686,-0.97046,0.03345,-0.17383;
19:27:02.696,-0.94458,0.05908,-0.18970;
19:27:02.706,-0.95410,0.08813,-0.19019;
19:27:02.716,-0.97363,0.06714,-0.18408;
19:27:02.726,-0.97754,0.04443,-0.17065;
19:27:02.736,-0.97632,0.04468,-0.15845;
19:27:02.746,-0.99146,0.02661,-0.11865;
19:27:02.756,-1.00806,-0.00366,-0.07983;
19:27:02.766,-1.01123,-0.01538,-0.06055;
19:27:02.776,-1.01123,-0.00171,-0.06104;
19:27:02.786,-1.00635,0.01489,-0.08032;
19:27:02.796,-1.00244,0.01196,-0.09375;
19:27:02.806,-0.99805,0.00122,-0.09644;
19:27:02.816,-0.99341,-0.00146,-0.11475;
19:27:02.826,-0.98755,-0.00171,-0.15039;
19:27:02.836,-0.98657,0.00806,-0.16675;
19:27:02.846,-0.98682,0.00684,-0.17749;
19:27:02.856,-0.98193,0.01099,-0.11548;
19:27:02.866,-0.99048,-0.00635,-0.04272;
19:27:02.876,-1.00928,-0.05151,0.03149;
19:27:02.886,-1.01001,-0.02954,0.00122;
19:27:02.896,-0.99731,-0.03174,-0.00781;
19:27:02.906,-0.99268,-0.04810,-0.03442;
19:27:02.916,-1.01050,-0.04053,-0.00366;
19:27:02.926,-1.01147,-0.01636,-0.00830;
19:27:02.936,-1.02026,-0.01831,-0.00879;
19:27:02.946,-1.02686,-0.02515,-0.01733;
19:27:02.956,-1.01978,-0.02612,-0.03687;
19:27:02.966,-1.00537,-0.02100,-0.05542;
19:27:02.976,-0.99731,-0.01294,-0.06201;
19:27:02.986,-0.99854,-0.00830,-0.06055;
19:27:02.996,-1.00146,0.00513,-0.06323;
19:27:03.006,-1.00293,0.02832,-0.06152;
19:27:03.016,-1.00659,0.03711,-0.05811;
19:27:03.026,-1.00806,0.02393,-0.04395;
19:27:03.036,-1.00977,0.03638,-0.03271;
19:27:03.046,-1.01782,0.02246,-0.02295;
19:27:03.056,-1.01733,-0.00879,-0.01465;
19:27:03.066,-1.01099,-0.00244,-0.00342;
19:27:03.076,-0.99976,-0.01172,-0.01245;
19:27:03.086,-0.98706,-0.02808,-0.01807;
19:27:03.096,-0.98950,-0.03003,-0.01270;
19:27:03.106,-0.99146,-0.02051,-0.02686;
19:27:03.116,-0.99756,-0.01660,-0.03687;
19:27:03.126,-1.00366,-0.02344,-0.03979;
19:27:03.136,-1.00342,-0.02441,-0.02490;
19:27:03.146,-1.00757,-0.02515,-0.00781;
19:27:03.156,-1.01172,-0.03589,0.00415;
19:27:03.166,-1.01489,-0.05151,0.01685;
19:27:03.176,-1.01514,-0.05322,0.02173;
19:27:03.186,-1.01074,-0.06372,0.02905;
19:27:03.196,-1.00293,-0.05811,0.02563;
19:27:03.206,-1.00000,-0.03931,0.01489;
19:27:03.216,-1.00317,-0.04102,0.01855;
19:27:03.226,-1.00293,-0.04395,0.02661;
19:27:03.236,-0.99780,-0.02222,0.03223;
19:27:03.246,-1.00073,-0.00073,0.02246;
19:27:03.256,-1.01123,0.00049,-0.00024;
19:27:03.266,-1.01807,0.00146,-0.01758;
19:27:03.276,-1.01294,0.00366,-0.04443;
19:27:03.286,-1.00488,0.01465,-0.06128;
19:27:03.296,-0.99731,0.02759,-0.04443;
19:27:03.306,-0.99609,0.02710,-0.02979;
19:27:03.316,-1.00122,0.02002,-0.04150;
19:27:03.326,-1.00195,0.03076,-0.05762;
19:27:03.336,-1.00830,0.02246,-0.04517;
19:27:03.346,-1.01611,0.04272,-0.05786;
19:27:03.356,-1.01611,0.04614,-0.06543;
19:27:03.366,-1.00635,0.03979,-0.07568;
19:27:03.376,-0.99561,0.03345,-0.08813;
19:27:03.386,-0.98853,0.01831,-0.08008;
19:27:03.396,-0.98438,-0.00146,-0.05469;
19:27:03.406,-0.99463,-0.00024,-0.04712;
19:27:03.416,-1.00610,-0.00171,-0.04346;
19:27:03.426,-1.00513,-0.00488,-0.03882;
19:27:03.436,-1.00244,0.00513,-0.04224;
19:27:03.446,-0.99878,0.00391,-0.04736;
19:27:03.456,-0.99463,-0.00195,-0.05469;
19:27:03.466,-0.99634,0.00488,-0.05469;
19:27:03.476,-1.00098,-0.00830,-0.06567;
19:27:03.486,-1.00049,-0.01660,-0.07739;
19:27:03.496,-0.99780,-0.01563,-0.06274;
19:27:03.506,-0.99170,-0.02319,-0.02271;
19:27:03.516,-0.99219,-0.02173,0.00098;
19:27:03.526,-0.99951,-0.02002,-0.00464;
19:27:03.536,-1.01025,-0.01221,-0.01563;
19:27:03.546,-1.02026,-0.01343,-0.01440;
19:27:03.556,-1.02368,-0.02490,0.00391;
19:27:03.566,-1.02563,-0.04810,0.03418;
19:27:03.576,-1.01782,-0.05615,0.07544;
19:27:03.586,-1.01318,-0.05713,0.09741;
19:27:03.596,-1.00684,-0.05615,0.09912;
19:27:03.606,-0.99023,-0.05664,0.07837;
19:27:03.616,-0.96851,-0.06714,0.03735;
19:27:03.626,-0.95288,-0.05908,-0.00171;
19:27:03.636,-0.95020,-0.05200,-0.03174;
19:27:03.646,-0.94995,-0.05542,-0.03784;
19:27:03.656,-0.97095,-0.06909,-0.01807;
19:27:03.666,-0.99878,-0.06592,0.00562;
19:27:03.676,-1.01245,-0.05200,0.02490;
19:27:03.686,-1.01880,-0.05127,0.04224;
19:27:03.696,-1.01489,-0.05127,0.05566;
19:27:03.706,-1.01196,-0.03711,0.05518;
19:27:03.716,-1.00732,-0.02661,0.03320;
19:27:03.726,-0.99707,-0.02490,0.00537;
19:27:03.736,-0.98730,-0.01050,-0.02271;
19:27:03.746,-0.99023,0.01123,-0.04272;
19:27:03.756,-1.01367,0.01465,-0.04565;
19:27:03.766,-1.04492,-0.00928,-0.04956;
19:27:03.776,-1.05981,-0.02319,-0.02051;
19:27:03.786,-1.04492,-0.02515,0.01807;
19:27:03.796,-1.00684,-0.04053,0.06592;
19:27:03.806,-0.98535,-0.04224,0.07373;
19:27:03.816,-0.96729,-0.06519,0.06860;
19:27:03.826,-0.96118,-0.07715,0.03833;
19:27:03.836,-0.96655,-0.06030,0.01099;
19:27:03.846,-0.97754,-0.04468,0.00879;
19:27:03.856,-1.00488,-0.04126,0.02930;
19:27:03.866,-1.02441,-0.06201,0.05298;
19:27:03.876,-1.02368,-0.08936,0.07129;
19:27:03.886,-1.01538,-0.09155,0.08545;
19:27:03.896,-1.00439,-0.10498,0.09473;
19:27:03.906,-0.99194,-0.09302,0.12061;
19:27:03.916,-0.98511,-0.06567,0.14136;
19:27:03.926,-0.99316,-0.06226,0.11841;
19:27:03.936,-1.00513,-0.02930,0.06567;
19:27:03.946,-1.01978,0.00977,0.02002;
19:27:03.956,-1.02441,0.01440,0.01807;
19:27:03.966,-1.01880,0.01050,0.01758;
19:27:03.976,-1.01978,0.00659,-0.02124;
19:27:03.986,-1.01245,0.01001,-0.06836;
19:27:03.996,-1.00220,0.01196,-0.08057;
19:27:04.006,-0.99487,0.00098,-0.06470;
19:27:04.016,-1.00098,-0.00269,-0.05957;
19:27:04.026,-1.00659,0.01782,-0.06616;
19:27:04.036,-1.00610,0.03101,-0.06250;
19:27:04.046,-1.00366,0.03833,-0.05249;
19:27:04.056,-1.00073,0.03442,-0.05493;
19:27:04.066,-1.00317,0.02686,-0.06104;
19:27:04.076,-0.99780,0.00562,-0.05347;
19:27:04.086,-0.98633,0.00659,-0.06226;
19:27:04.096,-0.98413,-0.01294,-0.04980;
19:27:04.106,-1.00708,-0.02246,-0.02246;
19:27:04.116,-0.99731,-0.01733,-0.01245;
19:27:04.126,-0.99780,-0.01855,-0.02783;
19:27:04.136,-1.00610,0.00000,-0.07910;
19:27:04.146,-1.00098,0.01050,-0.08350;
19:27:04.156,-1.00171,-0.00220,-0.05762;
19:27:04.166,-1.01318,-0.01831,-0.04224;
19:27:04.176,-1.01636,0.00098,-0.03247;
19:27:04.186,-1.01147,-0.00757,-0.03979;
19:27:04.196,-1.00488,-0.01880,-0.04688;
19:27:04.206,-0.99072,-0.01709,-0.05151;
19:27:04.216,-0.97876,-0.03247,-0.05737;
19:27:04.226,-0.97705,-0.03198,-0.05005;
19:27:04.236,-0.97803,-0.02563,-0.04712;
19:27:04.246,-0.98682,-0.00098,-0.05444;
19:27:04.256,-1.00586,-0.00293,-0.05640;
19:27:04.266,-1.01392,-0.02905,-0.04688;
19:27:04.276,-1.01074,-0.03613,-0.04126;
19:27:04.286,-1.00171,-0.02271,-0.04077;
19:27:04.296,-0.99170,-0.02441,-0.00952;
19:27:04.306,-0.99902,-0.01660,0.02124;
19:27:04.316,-1.01709,-0.01636,0.02612;
19:27:04.326,-1.02051,-0.02197,0.00122;
19:27:04.336,-1.02344,-0.00659,-0.01245;
19:27:04.346,-1.02197,0.00317,-0.02246;
19:27:04.356,-1.00879,0.00854,-0.05420;
19:27:04.366,-1.00781,0.02588,-0.07617;
19:27:04.376,-1.00708,0.04272,-0.11377;
19:27:04.386,-1.00415,0.03174,-0.12939;
19:27:04.396,-0.99780,0.01660,-0.12109;
19:27:04.406,-0.99048,0.01440,-0.11694;
19:27:04.416,-0.99048,0.01953,-0.09082;
19:27:04.426,-0.99194,0.01660,-0.05493;
19:27:04.436,-0.98853,0.01440,-0.04346;
19:27:04.446,-0.98901,0.02759,-0.04321;
19:27:04.456,-1.00146,0.02271,-0.04517;
19:27:04.466,-1.00928,0.01807,-0.04517;
19:27:04.476,-1.01636,0.03955,-0.03369;
19:27:04.486,-1.02417,-0.01318,-0.00635;
19:27:04.496,-1.01538,-0.03687,-0.00439;
19:27:04.506,-1.00342,-0.00732,-0.06128;
19:27:04.516,-0.99121,-0.01953,-0.08521;
19:27:04.526,-0.98486,-0.01660,-0.09033;
19:27:04.536,-0.97656,0.00024,-0.08350;
19:27:04.546,-0.98193,0.01318,-0.06152;
19:27:04.556,-0.99585,0.00269,-0.05078;
19:27:04.566,-0.99854,0.01855,-0.02905;
19:27:04.576,-1.01099,0.05151,-0.01294;
19:27:04.586,-1.02588,0.03491,0.01172;
19:27:04.596,-1.04028,0.02002,0.02612;
19:27:04.606,-1.04443,0.02271,0.01489;
19:27:04.616,-1.02881,0.01733,-0.01953;
19:27:04.626,-1.00684,0.02319,-0.11279;
19:27:04.636,-0.97314,0.06177,-0.10107;
19:27:04.646,-0.96899,0.06860,-0.05664;
19:27:04.656,-0.99121,0.06006,-0.06396;
19:27:04.666,-1.00537,0.09546,-0.03979;
19:27:04.676,-1.01270,0.08911,-0.02368;
19:27:04.686,-1.00757,0.07397,-0.00537;
19:27:04.696,-0.98901,0.07397,0.02026;
19:27:04.706,-0.99121,0.09375,0.04565;
19:27:04.716,-1.00464,0.08105,0.02393;
19:27:04.726,-1.01172,0.04272,-0.01099;
19:27:04.736,-1.00781,0.03711,-0.03394;
19:27:04.746,-1.00488,0.03296,-0.06177;
19:27:04.756,-0.99634,0.03662,-0.07300;
19:27:04.766,-0.98901,0.07959,-0.04517;
19:27:04.776,-0.99463,0.07300,-0.00024;
19:27:04.786,-0.99121,0.04639,0.02026;
19:27:04.796,-0.99023,0.05566,0.03076;
19:27:04.806,-0.99756,0.06836,0.05127;
19:27:04.816,-1.00073,0.06396,0.06006;
19:27:04.826,-1.00537,0.05786,0.05640;
19:27:04.836,-1.01953,0.07080,0.04565;
19:27:04.846,-1.03638,0.09253,0.01440;
19:27:04.856,-1.03101,0.10962,-0.01416;
19:27:04.866,-1.02173,0.08838,0.00049;
19:27:04.876,-1.01392,0.04736,0.05200;
19:27:04.886,-1.00684,0.04565,0.08911;
19:27:04.896,-1.01538,0.07910,0.06982;
19:27:04.906,-1.02710,0.07886,0.02979;
19:27:04.916,-1.04126,0.05371,0.03394;
19:27:04.926,-1.03760,0.04565,0.05884;
19:27:04.936,-1.02490,0.04712,0.06201;
19:27:04.946,-1.02417,0.08569,0.03735;
19:27:04.956,-1.01855,0.08081,0.06836;
19:27:04.966,-1.02344,0.06299,0.01709;
19:27:04.976,-1.00708,0.06665,0.03540;
19:27:04.986,-1.01685,0.08301,0.14624;
19:27:04.996,-1.04077,0.08350,0.13989;
19:27:05.006,-1.04663,0.07568,0.14355;
19:27:05.016,-1.06030,0.10010,0.14526;
19:27:05.026,-1.04883,0.05566,0.10303;
19:27:05.036,-1.04517,0.07275,0.07495;
19:27:05.046,-1.03003,0.10718,0.03027;
19:27:05.056,-1.01465,0.10864,-0.00830;
19:27:05.066,-1.00708,0.06958,-0.02515;
19:27:05.076,-1.01514,0.04980,-0.04443;
19:27:05.086,-1.02905,0.05225,-0.07568;
19:27:05.096,-1.02002,0.08447,-0.05933;
19:27:05.106,-1.00977,0.07837,-0.03198;
19:27:05.116,-1.00342,0.05151,-0.00122;
19:27:05.126,-0.99487,0.09326,0.02979;
19:27:05.136,-0.99341,0.16357,0.04419;
19:27:05.146,-0.99976,0.16626,0.08179;
19:27:05.156,-0.98193,0.11816,0.16309;
19:27:05.166,-0.95435,0.09155,0.26782;
19:27:05.176,-0.93286,0.05347,0.32300;
19:27:05.186,-0.93604,0.00049,0.35913;
19:27:05.196,-0.95166,-0.03369,0.40723;
19:27:05.206,-0.97534,-0.01294,0.44482;
19:27:05.216,-1.00439,0.01611,0.45972;
19:27:05.226,-1.00928,0.03052,0.45605;
19:27:05.236,-0.99121,0.05103,0.44165;
19:27:05.246,-0.95410,0.07324,0.43750;
19:27:05.256,-0.94922,0.07983,0.43066;
19:27:05.266,-0.99609,0.06006,0.40918;
19:27:05.276,-1.01611,-0.05566,0.39746;
19:27:05.286,-0.97607,-0.22046,0.45117;
19:27:05.296,-0.98096,-0.31909,0.31421;
19:27:05.306,-0.93481,-0.28784,0.24927;
19:27:05.316,-0.86670,-0.13086,0.24023;
19:27:05.326,-0.87061,0.11108,0.18823;
19:27:05.336,-0.85083,0.39087,0.21265;
19:27:05.346,-0.88037,0.63306,0.02100;
19:27:05.356,-0.89526,0.53296,-0.18311;
19:27:05.366,-0.95874,0.35132,-0.19360;
19:27:05.376,-1.02490,0.13159,-0.12134;
19:27:05.386,-1.03467,-0.06372,0.03247;
19:27:05.396,-1.05078,-0.25513,0.14209;
19:27:05.406,-0.99902,-0.32227,0.22363;
19:27:05.416,-0.98315,-0.32886,0.21802;
19:27:05.426,-0.98584,-0.28174,0.15991;
19:27:05.436,-0.98755,-0.22534,0.09351;
19:27:05.446,-1.04907,-0.34766,-0.16406;
19:27:05.456,-0.85767,-0.33862,0.17603;
19:27:05.466,-0.82739,0.14038,0.59961;
19:27:05.476,-1.16016,0.55029,0.08032;
19:27:05.486,-1.04492,0.79419,-0.29785;
19:27:05.496,-0.87915,0.83179,-0.17285;
19:27:05.506,-0.96924,0.60791,-0.07202;
19:27:05.516,-0.98755,0.35083,-0.02002;
19:27:05.526,-0.97705,0.04639,0.09863;
19:27:05.536,-0.96680,-0.12695,0.15186;
19:27:05.546,-0.95801,-0.10791,0.15039;
19:27:05.556,-1.00659,0.08862,0.10181;
19:27:05.566,-1.05981,0.39966,0.01245;
19:27:05.576,-1.05859,0.49146,0.00830;
19:27:05.586,-1.07642,0.32324,0.13428;
19:27:05.596,-1.11304,0.13354,0.24268;
19:27:05.606,-1.13159,0.09082,0.25171;
19:27:05.616,-1.13550,0.14355,0.18799;
19:27:05.626,-1.10547,0.17456,0.14087;
19:27:05.636,-1.05933,0.17993,0.12427;
19:27:05.646,-1.03003,0.16724,0.08423;
19:27:05.656,-1.01196,0.15039,0.03857;
19:27:05.666,-0.98560,0.13696,0.00879;
19:27:05.676,-0.96265,0.12427,-0.00879;
19:27:05.686,-0.94897,0.11548,-0.03516;
19:27:05.696,-0.93945,0.11401,-0.05542;
19:27:05.706,-0.93872,0.09351,-0.04834;
19:27:05.716,-0.95459,0.05493,-0.03076;
19:27:05.726,-0.97559,0.04614,-0.02612;
19:27:05.736,-0.99854,0.08154,-0.02563;
19:27:05.746,-1.01514,0.10913,-0.01978;
19:27:05.756,-1.01465,0.10767,-0.00928;
19:27:05.766,-1.02124,0.10449,-0.00439;
19:27:05.776,-1.02393,0.11963,0.00415;
19:27:05.786,-1.01660,0.13086,0.01440;
19:27:05.796,-1.00830,0.13086,0.00488;
19:27:05.806,-0.99854,0.13501,-0.02295;
19:27:05.816,-0.98560,0.13574,-0.05371;
19:27:05.826,-0.98828,0.13037,-0.07202;
19:27:05.836,-0.99707,0.12524,-0.08252;
19:27:05.846,-0.99951,0.12231,-0.10889;
19:27:05.856,-0.99194,0.13477,-0.12354;
19:27:05.866,-1.00659,0.12891,-0.06421;
19:27:05.876,-1.01660,0.12402,-0.08643;
19:27:05.886,-1.01489,0.14136,-0.08911;
19:27:05.896,-1.00977,0.13501,-0.04419;
19:27:05.906,-1.00635,0.11694,-0.03076;
19:27:05.916,-1.00830,0.13184,-0.05103;
19:27:05.926,-1.00977,0.14282,-0.08130;
19:27:05.936,-1.00562,0.12939,-0.08838;
19:27:05.946,-0.98975,0.11548,-0.08008;
19:27:05.956,-0.97852,0.11499,-0.06665;
19:27:05.966,-0.98071,0.11328,-0.05298;
19:27:05.976,-0.99146,0.11377,-0.05591;
19:27:05.986,-0.98682,0.11157,-0.06079;
19:27:05.996,-0.98047,0.09985,-0.08301;
19:27:06.006,-0.96167,0.10059,-0.11279;
19:27:06.016,-0.93994,0.11450,-0.12622;
19:27:06.026,-0.97510,0.11963,-0.11523;
19:27:06.036,-1.02808,0.12866,-0.07837;
19:27:06.046,-1.04053,0.11157,-0.04053;
19:27:06.056,-1.00586,0.06958,-0.03027;
19:27:06.066,-0.98120,0.05762,-0.03638;
19:27:06.076,-0.97778,0.05371,-0.06226;
19:27:06.086,-0.99219,0.06372,-0.10010;
19:27:06.096,-1.01489,0.07764,-0.12744;
19:27:06.106,-1.01953,0.06250,-0.14673;
19:27:06.116,-1.03003,0.06860,-0.12939;
19:27:06.126,-1.03784,0.09033,-0.09033;
19:27:06.136,-1.02246,0.09570,-0.05542;
19:27:06.146,-0.98901,0.09741,-0.05542;
19:27:06.156,-0.95728,0.12354,-0.08032;
19:27:06.166,-0.95679,0.13965,-0.10742;
19:27:06.176,-0.95020,0.12158,-0.17480;
19:27:06.186,-0.92871,0.16553,-0.16431;
19:27:06.196,-0.96533,0.20117,-0.09668;
19:27:06.206,-1.00928,0.17139,-0.09692;
19:27:06.216,-0.98853,0.22852,-0.08740;
19:27:06.226,-0.99756,0.21631,-0.08008;
19:27:06.236,-0.97559,0.24829,-0.17212;
19:27:06.246,-0.95166,0.27173,-0.27197;
19:27:06.256,-0.93384,0.25659,-0.32666;
19:27:06.266,-0.91333,0.25342,-0.30518;
19:27:06.276,-0.90918,0.26367,-0.23682;
19:27:06.286,-0.96289,0.26221,-0.20435;
19:27:06.296,-1.00903,0.24683,-0.20898;
19:27:06.306,-0.99536,0.25366,-0.21973;
19:27:06.316,-0.97290,0.25439,-0.20703;
19:27:06.326,-0.95972,0.20679,-0.18262;
19:27:06.336,-0.94849,0.16968,-0.17090;
19:27:06.346,-0.95483,0.14917,-0.17188;
19:27:06.356,-0.96533,0.12646,-0.17676;
19:27:06.366,-0.96729,0.12744,-0.18579;
19:27:06.376,-0.97046,0.13745,-0.19629;
19:27:06.386,-0.96582,0.14331,-0.20703;
19:27:06.396,-0.95239,0.15552,-0.21680;
19:27:06.406,-0.96240,0.17920,-0.21460;
19:27:06.416,-0.97925,0.21533,-0.21899;
19:27:06.426,-0.97412,0.22266,-0.26611;
19:27:06.436,-0.95703,0.20630,-0.28931;
19:27:06.446,-0.93872,0.15649,-0.22729;
19:27:06.456,-0.93896,0.14453,-0.18018;
19:27:06.466,-0.93237,0.19263,-0.20239;
19:27:06.476,-0.92578,0.23682,-0.19238;
19:27:06.486,-0.94824,0.25317,-0.12891;
19:27:06.496,-0.99268,0.21191,-0.11523;
19:27:06.506,-1.00879,0.17969,-0.13477;
19:27:06.516,-0.99780,0.13867,-0.14233;
19:27:06.526,-0.97266,0.13940,-0.12744;
19:27:06.536,-0.97119,0.26465,-0.11572;
19:27:06.546,-1.01416,0.26343,-0.11060;
19:27:06.556,-1.02246,0.14453,-0.08057;
19:27:06.566,-1.01392,0.15186,-0.12402;
19:27:06.576,-0.98633,0.18311,-0.18506;
19:27:06.586,-0.96680,0.17773,-0.17432;
19:27:06.596,-0.98340,0.18042,-0.14282;
19:27:06.606,-0.98730,0.22266,-0.09302;
19:27:06.616,-0.99756,0.21729,-0.08862;
19:27:06.626,-0.99585,0.18042,-0.15869;
19:27:06.636,-0.96680,0.16992,-0.25659;
19:27:06.646,-0.91626,0.16748,-0.21997;
19:27:06.656,-0.96460,0.15234,-0.14819;
19:27:06.666,-1.00732,0.15381,-0.04590;
19:27:06.676,-1.01074,0.12573,-0.05396;
19:27:06.686,-0.92456,0.07031,-0.19189;
19:27:06.696,-0.92578,-0.02344,-0.15820;
19:27:06.706,-1.06616,0.03027,-0.13794;
19:27:06.716,-1.10034,0.27515,-0.19360;
19:27:06.726,-1.07007,0.25391,-0.22925;
19:27:06.736,-1.00317,0.11621,-0.27148;
19:27:06.746,-0.93433,0.06860,-0.37671;
19:27:06.756,-0.81250,0.23975,-0.32422;
19:27:06.766,-0.76563,0.55396,-0.23071;
19:27:06.776,-0.76709,0.73560,-0.19482;
19:27:06.786,-0.95850,0.23511,-0.00195;
19:27:06.796,-1.03003,0.20557,0.00610;
19:27:06.806,-1.09155,0.08887,0.04419;
19:27:06.816,-1.09229,0.05762,0.11694;
19:27:06.826,-1.10059,0.10352,0.12817;
19:27:06.836,-1.10645,0.08325,0.04272;
19:27:06.846,-1.05591,0.10767,-0.07983;
19:27:06.856,-1.01416,0.08936,-0.14160;
19:27:06.866,-0.99487,0.01563,-0.12329;
19:27:06.876,-0.99805,0.00830,-0.07593;
19:27:06.886,-1.03467,-0.00317,-0.02100;
19:27:06.896,-1.05371,-0.01001,0.06348;
19:27:06.906,-1.03979,-0.02466,0.07251;
19:27:06.916,-0.99561,-0.05322,0.01489;
19:27:06.926,-0.96631,-0.04248,-0.07983;
19:27:06.936,-0.97754,0.00024,-0.20679;
19:27:06.946,-0.97314,0.00293,-0.36133;
19:27:06.956,-0.95361,-0.04126,-0.39966;
19:27:06.966,-0.92944,-0.02612,-0.29468;
19:27:06.976,-0.91772,0.02124,-0.16455;
19:27:06.986,-0.95508,0.08057,-0.00488;
19:27:06.996,-1.02490,0.09644,0.09863;
19:27:07.006,-1.06201,0.14233,0.14673;
19:27:07.016,-1.04370,0.19751,0.05151;
19:27:07.026,-1.03003,0.14307,-0.01221;
19:27:07.036,-1.01538,0.13232,-0.06250;
19:27:07.046,-0.97583,0.12891,-0.10107;
19:27:07.056,-0.95337,0.10767,-0.14063;
19:27:07.066,-0.97046,0.07349,-0.14258;
19:27:07.076,-0.96973,0.08130,-0.12964;
19:27:07.086,-0.95898,0.09985,-0.05469;
19:27:07.096,-0.98657,0.05322,0.01611;
19:27:07.106,-1.00977,0.04272,0.01611;
19:27:07.116,-1.01196,0.06079,-0.03687;
19:27:07.126,-0.99634,0.03247,-0.07422;
19:27:07.136,-0.98657,0.03467,-0.05273;
19:27:07.146,-0.99829,0.05615,-0.04761;
19:27:07.156,-0.99268,0.05566,-0.05322;
19:27:07.166,-1.00586,0.08960,-0.06641;
19:27:07.176,-1.02417,0.12695,-0.07959;
19:27:07.186,-1.01904,0.08740,-0.07300;
19:27:07.196,-1.02124,0.05786,-0.05347;
19:27:07.206,-1.00708,0.05884,-0.04590;
19:27:07.216,-0.98364,0.06567,-0.04077;
19:27:07.226,-0.99316,0.08252,-0.03491;
19:27:07.236,-1.00562,0.06494,-0.06470;
19:27:07.246,-0.99121,0.07666,-0.10010;
19:27:07.256,-0.97339,0.05298,-0.09741;
19:27:07.266,-0.99438,0.09033,-0.11060;
19:27:07.276,-1.00928,0.11206,-0.11279;
19:27:07.286,-1.00049,0.08081,-0.08569;
19:27:07.296,-0.97974,0.07373,-0.05005;
19:27:07.306,-0.96460,0.11572,-0.03174;
19:27:07.316,-0.97437,0.13013,-0.02417;
19:27:07.326,-1.00439,0.13110,-0.00708;
19:27:07.336,-1.02466,0.16431,-0.02344;
19:27:07.346,-1.02881,0.16846,-0.05420;
19:27:07.356,-1.01270,0.13867,-0.07813;
19:27:07.366,-0.98413,0.13110,-0.10278;
19:27:07.376,-0.97925,0.13599,-0.14014;
19:27:07.386,-0.99390,0.15234,-0.20142;
19:27:07.396,-0.98853,0.13477,-0.21094;
19:27:07.406,-1.00366,0.12939,-0.15039;
19:27:07.416,-0.99927,0.15479,-0.16553;
19:27:07.426,-1.00146,0.14868,-0.18188;
19:27:07.436,-0.99170,0.12842,-0.17529;
19:27:07.446,-0.97925,0.07861,-0.13184;
19:27:07.456,-0.98706,0.06714,-0.09399;
19:27:07.466,-1.00537,0.11035,-0.11304;
19:27:07.476,-1.01050,0.11890,-0.11719;
19:27:07.486,-0.99829,0.12061,-0.09277;
19:27:07.496,-0.99634,0.11987,-0.07349;
19:27:07.506,-1.00513,0.09229,-0.05615;
19:27:07.516,-0.99072,0.07129,-0.02490;
19:27:07.526,-0.98730,0.06201,0.00537;
19:27:07.536,-1.00610,0.05493,-0.03711;
19:27:07.546,-1.00415,0.06396,-0.05664;
19:27:07.556,-0.99878,0.08228,-0.03223;
19:27:07.566,-1.00439,0.10522,-0.06177;
19:27:07.576,-1.00562,0.06738,-0.07642;
19:27:07.586,-1.01172,0.03906,-0.06104;
19:27:07.596,-1.01514,0.04248,-0.05322;
19:27:07.606,-1.01953,0.01294,-0.02783;
19:27:07.616,-1.02002,0.03125,0.00317;
19:27:07.626,-1.02026,0.05078,0.01709;
19:27:07.636,-1.01855,0.03857,0.00928;
19:27:07.646,-1.00415,0.05542,-0.01025;
19:27:07.656,-1.00293,0.03857,-0.01733;
19:27:07.666,-1.01392,0.03687,-0.01294;
19:27:07.676,-1.01538,0.10938,-0.02808;
19:27:07.686,-1.02710,0.13745,-0.14258;
19:27:07.696,-0.97217,0.12280,-0.24976;
19:27:07.706,-0.91309,0.08521,-0.23193;
19:27:07.716,-0.93994,0.04419,-0.22217;
19:27:07.726,-0.94678,0.05322,-0.22095;
19:27:07.736,-0.96094,0.08154,-0.16309;
19:27:07.746,-0.98804,0.09546,-0.15137;
19:27:07.756,-0.98804,0.11816,-0.15234;
19:27:07.766,-0.98413,0.10620,-0.10669;
19:27:07.776,-0.98462,0.08521,-0.08423;
19:27:07.786,-0.97974,0.11108,-0.08813;
19:27:07.796,-0.97900,0.11792,-0.09229;
19:27:07.806,-0.99756,0.11548,-0.09058;
19:27:07.816,-0.98853,0.16504,-0.10205;
19:27:07.826,-0.99731,0.16797,-0.09229;
19:27:07.836,-1.00659,0.14478,-0.10498;
19:27:07.846,-0.97705,0.11816,-0.16431;
19:27:07.856,-0.96851,0.15088,-0.16235;
19:27:07.866,-0.98804,0.18213,-0.09253;
19:27:07.876,-0.98657,0.12476,-0.11230;
19:27:07.886,-0.95508,0.14600,-0.21289;
19:27:07.896,-0.95313,0.16284,-0.23096;
19:27:07.906,-0.96484,0.11938,-0.23535;
19:27:07.916,-0.96704,0.08740,-0.21069;
19:27:07.926,-0.95581,0.13940,-0.19092;
19:27:07.936,-0.95264,0.20068,-0.12524;
19:27:07.946,-0.97925,0.20581,-0.06396;
19:27:07.956,-1.00635,0.17969,-0.04907;
19:27:07.966,-1.01318,0.17139,-0.06519;
19:27:07.976,-1.01245,0.18115,-0.07690;
19:27:07.986,-1.01831,0.18774,-0.10181;
19:27:07.996,-1.00366,0.19067,-0.12817;
19:27:08.006,-0.99146,0.20605,-0.13843;
19:27:08.016,-0.99341,0.22388,-0.17896;
19:27:08.026,-0.96729,0.22314,-0.20996;
19:27:08.036,-0.93481,0.22461,-0.18652;
19:27:08.046,-0.94263,0.21875,-0.14209;
19:27:08.056,-0.96704,0.19336,-0.12354;
19:27:08.066,-0.97949,0.19092,-0.10352;
19:27:08.076,-0.99341,0.20117,-0.07422;
19:27:08.086,-0.99146,0.22095,-0.05542;
19:27:08.096,-0.98608,0.20435,-0.02808;
19:27:08.106,-0.98804,0.17603,-0.01855;
19:27:08.116,-0.99121,0.17603,-0.04297;
19:27:08.126,-0.99438,0.16211,-0.06274;
19:27:08.136,-0.99438,0.16260,-0.06934;
19:27:08.146,-0.98608,0.18066,-0.08765;
19:27:08.156,-0.99097,0.20044,-0.09668;
19:27:08.166,-1.01392,0.21704,-0.08472;
19:27:08.176,-1.01733,0.23755,-0.06445;
19:27:08.186,-0.99609,0.23291,-0.04761;
19:27:08.196,-0.97925,0.20679,-0.03271;
19:27:08.206,-0.97656,0.17847,-0.01733;
19:27:08.216,-0.98853,0.14771,-0.00049;
19:27:08.226,-0.97290,0.15503,-0.00244;
19:27:08.236,-0.94922,0.19409,-0.04443;
19:27:08.246,-0.98218,0.18530,-0.03491;
19:27:08.256,-0.99756,0.20020,0.00488;
19:27:08.266,-1.00488,0.20776,0.01953;
19:27:08.276,-1.01416,0.18921,0.02881;
19:27:08.286,-1.02466,0.19946,0.05029;
19:27:08.296,-1.04639,0.19702,0.06128;
19:27:08.306,-1.07007,0.15723,0.07617;
19:27:08.316,-1.05176,0.15063,0.08032;
19:27:08.326,-1.02686,0.17871,0.09155;
19:27:08.336,-1.01294,0.17920,0.08618;
19:27:08.346,-0.99194,0.17480,0.07593;
19:27:08.356,-0.99072,0.19751,0.05029;
19:27:08.366,-0.97021,0.20801,0.03882;
19:27:08.376,-0.94653,0.22583,0.04492;
19:27:08.386,-0.96289,0.25171,0.02734;
19:27:08.396,-0.98218,0.26147,0.00049;
19:27:08.406,-0.99146,0.26611,-0.05737;
19:27:08.416,-1.01392,0.29248,-0.10913;
19:27:08.426,-1.03442,0.30078,-0.12207;
19:27:08.436,-1.04028,0.26563,-0.07788;
19:27:08.446,-1.03345,0.23169,-0.00122;
19:27:08.456,-1.01831,0.22729,0.09375;
19:27:08.466,-1.01538,0.23706,0.16211;
19:27:08.476,-1.00293,0.20532,0.18726;
19:27:08.486,-0.98511,0.16138,0.21606;
19:27:08.496,-0.98071,0.14307,0.21460;
19:27:08.506,-0.98218,0.15552,0.19214;
19:27:08.516,-0.97339,0.17358,0.15625;
19:27:08.526,-0.94507,0.18433,0.13794;
19:27:08.536,-0.91577,0.18311,0.14355;
19:27:08.546,-0.89331,0.15723,0.14771;
19:27:08.556,-0.88232,0.12549,0.16016;
19:27:08.566,-0.91016,0.17847,0.10938;
19:27:08.576,-0.95239,0.28125,-0.02173;
19:27:08.586,-0.95093,0.30420,-0.15454;
19:27:08.596,-0.96289,0.25024,-0.26855;
19:27:08.606,-0.97681,0.21265,-0.32617;
19:27:08.616,-0.97607,0.22217,-0.33423;
19:27:08.626,-0.96753,0.19434,-0.34668;
19:27:08.636,-0.94165,0.14209,-0.30713;
19:27:08.646,-0.95068,0.12305,-0.23901;
19:27:08.656,-0.97437,0.15015,-0.18066;
19:27:08.666,-0.98999,0.18994,-0.10034;
19:27:08.676,-1.00269,0.20117,-0.01733;
19:27:08.686,-1.00098,0.21704,0.05396;
19:27:08.696,-0.97632,0.25586,0.13037;
19:27:08.706,-0.95679,0.28198,0.19995;
19:27:08.716,-0.93896,0.28979,0.33521;
19:27:08.726,-0.97290,0.28394,0.36060;
19:27:08.736,-1.00854,0.26611,0.31934;
19:27:08.746,-1.00439,0.23657,0.23608;
19:27:08.756,-0.97144,0.25073,0.15894;
19:27:08.766,-0.95459,0.26563,0.07886;
19:27:08.776,-0.95288,0.19946,-0.13013;
19:27:08.786,-0.96558,0.17627,-0.22021;
19:27:08.796,-0.97583,0.19141,-0.26587;
19:27:08.806,-0.98071,0.18994,-0.24268;
19:27:08.816,-0.99292,0.15991,-0.17407;
19:27:08.826,-0.99219,0.15747,-0.07935;
19:27:08.836,-0.98267,0.22607,0.00488;
19:27:08.846,-0.99683,0.26636,0.09058;
19:27:08.856,-1.03052,0.26172,0.14893;
19:27:08.866,-1.06201,0.28711,0.15527;
19:27:08.876,-1.07007,0.30640,0.15576;
19:27:08.886,-1.04858,0.28198,0.13159;
19:27:08.896,-1.01465,0.25000,0.05640;
19:27:08.906,-0.97363,0.22534,-0.01514;
19:27:08.916,-0.94019,0.20190,-0.08740;
19:27:08.926,-0.93677,0.18115,-0.15332;
19:27:08.936,-0.95850,0.14258,-0.17212;
19:27:08.946,-0.97485,0.13818,-0.15063;
19:27:08.956,-0.97974,0.16138,-0.11133;
19:27:08.966,-0.96973,0.14697,-0.06177;
19:27:08.976,-0.95483,0.11182,-0.00586;
19:27:08.986,-0.95581,0.12378,0.02954;
19:27:08.996,-0.97534,0.25928,-0.02271;
19:27:09.006,-1.01953,0.32642,-0.06470;
19:27:09.016,-1.03662,0.19775,0.02197;
19:27:09.026,-1.02539,0.12622,0.03491;
19:27:09.036,-0.99414,0.17114,-0.04541;
19:27:09.046,-0.97632,0.20313,-0.07593;
19:27:09.056,-1.01245,0.24365,-0.08667;
19:27:09.066,-0.99976,0.14453,-0.06494;
19:27:09.076,-0.99390,0.13354,-0.04907;
19:27:09.086,-1.01953,0.17017,-0.05957;
19:27:09.096,-1.00391,0.11938,-0.03442;
19:27:09.106,-0.98901,0.12793,-0.05981;
19:27:09.116,-0.97119,0.11060,-0.07397;
19:27:09.126,-0.99634,0.09229,-0.08984;
19:27:09.136,-0.99121,0.12793,-0.10376;
19:27:09.146,-0.99536,0.12842,-0.07617;
19:27:09.156,-1.00000,0.11157,-0.04639;
19:27:09.166,-1.00708,0.10620,-0.03687;
19:27:09.176,-1.01953,0.09155,-0.06665;
19:27:09.186,-1.01489,0.10132,-0.09277;
19:27:09.196,-0.98584,0.12378,-0.11255;
19:27:09.206,-0.95361,0.11646,-0.18091;
19:27:09.216,-0.92700,0.09985,-0.17944;
19:27:09.226,-0.93677,0.10400,-0.09497;
19:27:09.236,-0.97412,0.13721,-0.08301;
19:27:09.246,-1.00488,0.17139,-0.11401;
19:27:09.256,-1.01685,0.18091,-0.11255;
19:27:09.266,-1.00488,0.18970,-0.11377;
19:27:09.276,-0.97461,0.19629,-0.10571;
19:27:09.286,-0.96094,0.18530,-0.08008;
19:27:09.296,-0.99023,0.18530,-0.09644;
19:27:09.306,-1.00977,0.19458,-0.12720;
19:27:09.316,-1.00024,0.18604,-0.16504;
19:27:09.326,-0.97290,0.17871,-0.20752;
19:27:09.336,-0.95532,0.18848,-0.19971;
19:27:09.346,-0.95410,0.16602,-0.16919;
19:27:09.356,-0.95410,0.14111,-0.14722;
19:27:09.366,-0.97119,0.15063,-0.12085;
19:27:09.376,-0.98364,0.14673,-0.11670;
19:27:09.386,-0.97974,0.13232,-0.12061;
19:27:09.396,-0.98926,0.14478,-0.13892;
19:27:09.406,-0.99536,0.14526,-0.13184;
19:27:09.416,-0.99561,0.14697,-0.11841;
19:27:09.426,-0.99683,0.13916,-0.11084;
19:27:09.436,-1.00000,0.12183,-0.06982;
19:27:09.446,-1.00830,0.12036,-0.05200;
19:27:09.456,-1.00244,0.11084,-0.04956;
19:27:09.466,-0.98950,0.08569,-0.05396;
19:27:09.476,-0.98364,0.09863,-0.08423;
19:27:09.486,-0.96997,0.10352,-0.11865;
19:27:09.496,-0.93091,0.05884,-0.11060;
19:27:09.506,-0.93066,0.04565,-0.09033;
19:27:09.516,-0.94702,0.07520,-0.08984;
19:27:09.526,-0.98291,0.12817,-0.07813;
19:27:09.536,-1.01953,0.12524,-0.06006;
19:27:09.546,-1.02930,0.12573,-0.06250;
19:27:09.556,-1.02686,0.15356,-0.07324;
19:27:09.566,-1.02124,0.16162,-0.07983;
19:27:09.576,-1.03345,0.20898,-0.13208;
19:27:09.586,-1.02808,0.30273,-0.16748;
19:27:09.596,-1.00879,0.25220,-0.11694;
19:27:09.606,-0.98389,0.18506,-0.07837;
19:27:09.616,-0.98242,0.17627,-0.07764;
19:27:09.626,-0.99854,0.13477,-0.06348;
19:27:09.636,-1.00635,0.12158,-0.05371;
19:27:09.646,-1.02832,0.13281,-0.04199;
19:27:09.656,-1.03320,0.12427,-0.06519;
19:27:09.666,-1.00977,0.11426,-0.10205;
19:27:09.676,-0.98511,0.14111,-0.11670;
19:27:09.686,-0.97949,0.13013,-0.12817;
19:27:09.696,-0.96704,0.08862,-0.11841;
19:27:09.706,-0.95459,0.10010,-0.10693;
19:27:09.716,-0.94043,0.16040,-0.08765;
19:27:09.726,-0.95117,0.16626,-0.10010;
19:27:09.736,-0.99268,0.12256,-0.06885;
19:27:09.746,-1.00586,0.14771,-0.07861;
19:27:09.756,-1.00195,0.17847,-0.10400;
19:27:09.766,-1.00000,0.17383,-0.06323;
19:27:09.776,-0.99731,0.13013,-0.01489;
19:27:09.786,-1.00781,0.17432,0.00562;
19:27:09.796,-1.02026,0.17725,0.00464;
19:27:09.806,-1.01953,0.12256,-0.02295;
19:27:09.816,-1.01294,0.11230,-0.13306;
19:27:09.826,-0.95923,0.12109,-0.19385;
19:27:09.836,-0.92603,0.12231,-0.15723;
19:27:09.846,-0.93945,0.12451,-0.16675;
19:27:09.856,-0.95410,0.15820,-0.15649;
19:27:09.866,-0.98340,0.18506,-0.13965;
19:27:09.876,-1.00073,0.20752,-0.13110;
19:27:09.886,-1.00415,0.24365,-0.10376;
19:27:09.896,-1.01392,0.24902,-0.09253;
19:27:09.906,-1.01904,0.24536,-0.11060;
19:27:09.916,-1.01025,0.26538,-0.11694;
19:27:09.926,-0.99585,0.22607,-0.10156;
19:27:09.936,-0.97339,0.18945,-0.11523;
19:27:09.946,-0.95068,0.19360,-0.12891;
19:27:09.956,-0.95557,0.16943,-0.12988;
19:27:09.966,-0.96118,0.14160,-0.13965;
19:27:09.976,-0.96338,0.12891,-0.14453;
19:27:09.986,-0.97266,0.12622,-0.13232;
19:27:09.996,-0.98047,0.12354,-0.11743;
19:27:10.006,-0.98535,0.13037,-0.11987;
19:27:10.016,-0.98828,0.15869,-0.12158;
19:27:10.026,-1.00244,0.17261,-0.10571;
19:27:10.036,-1.00903,0.15112,-0.09985;
19:27:10.046,-1.01050,0.17798,-0.10327;
19:27:10.056,-1.00684,0.16357,-0.08374;
19:27:10.066,-0.99756,0.13818,-0.06030;
19:27:10.076,-0.99194,0.14917,-0.06079;
19:27:10.086,-0.98608,0.14404,-0.05103;
19:27:10.096,-0.98218,0.16333,-0.04907;
19:27:10.106,-0.98047,0.13599,-0.08472;
19:27:10.116,-0.96313,0.11694,-0.10327;
19:27:10.126,-0.95264,0.12280,-0.08789;
19:27:10.136,-0.95703,0.11792,-0.07788;
19:27:10.146,-0.98169,0.13818,-0.11548;
19:27:10.156,-1.00879,0.17017,-0.12036;
19:27:10.166,-1.00586,0.16406,-0.08618;
19:27:10.176,-1.00415,0.09961,-0.06909;
19:27:10.186,-1.00122,0.10449,-0.05981;
19:27:10.196,-0.99146,0.14697,-0.04468;
19:27:10.206,-1.00146,0.11499,-0.01025;
19:27:10.216,-1.01343,0.10815,-0.00806;
19:27:10.226,-1.00928,0.13379,-0.02490;
19:27:10.236,-1.01904,0.11816,-0.04565;
19:27:10.246,-1.03027,0.09937,-0.09497;
19:27:10.256,-1.01538,0.11035,-0.11670;
19:27:10.266,-1.00269,0.11694,-0.09937;
19:27:10.276,-0.97217,0.10400,-0.13379;
19:27:10.286,-0.95923,0.11523,-0.13452;
19:27:10.296,-0.95410,0.12061,-0.10498;
19:27:10.306,-0.96680,0.09497,-0.09497;
19:27:10.316,-0.96509,0.05762,-0.11719;
19:27:10.326,-0.97095,0.12280,-0.01709;
19:27:10.336,-1.01416,0.12988,-0.07349;
19:27:10.346,-1.00073,0.10669,-0.04565;
19:27:10.356,-0.98169,0.18457,-0.00708;
19:27:10.366,-1.02148,0.09766,0.00562;
19:27:10.376,-1.03613,0.18921,-0.13672;
19:27:10.386,-1.03491,0.16357,-0.11816;
19:27:10.396,-1.01001,0.21997,-0.15137;
19:27:10.406,-0.96533,0.26123,-0.13696;
19:27:10.416,-0.94678,0.27710,-0.14307;
19:27:10.426,-0.95459,0.28223,-0.16406;
19:27:10.436,-0.96289,0.20923,-0.16919;
19:27:10.446,-0.94360,0.17725,-0.19238;
19:27:10.456,-0.92261,0.14893,-0.20801;
19:27:10.466,-0.94067,0.11523,-0.19507;
19:27:10.476,-0.98145,0.12549,-0.14673;
19:27:10.486,-1.01050,0.13037,-0.11987;
19:27:10.496,-1.00293,0.11475,-0.12598;
19:27:10.506,-0.97656,0.10840,-0.11719;
19:27:10.516,-0.96313,0.11523,-0.12646;
19:27:10.526,-0.97314,0.12524,-0.13110;
19:27:10.536,-0.99536,0.13013,-0.11499;
19:27:10.546,-1.00708,0.13721,-0.10278;
19:27:10.556,-1.01318,0.12256,-0.06274;
19:27:10.566,-1.01514,0.11182,-0.03955;
19:27:10.576,-0.99438,0.12183,-0.04688;
19:27:10.586,-0.97656,0.11938,-0.02808;
19:27:10.596,-0.98755,0.11743,-0.02368;
19:27:10.606,-0.99902,0.10181,-0.08008;
19:27:10.616,-0.97632,0.11035,-0.11572;
19:27:10.626,-0.95483,0.13354,-0.11035;
19:27:10.636,-0.95654,0.13159,-0.12891;
19:27:10.646,-0.97314,0.16382,-0.13794;
19:27:10.656,-1.00635,0.21167,-0.11719;
19:27:10.666,-1.03271,0.16284,-0.07056;
19:27:10.676,-1.04810,0.11865,-0.04053;
19:27:10.686,-1.03613,0.10181,-0.04224;
19:27:10.696,-1.01880,0.07544,-0.03906;
19:27:10.706,-1.00391,0.09570,-0.02417;
19:27:10.716,-0.98364,0.06958,-0.03076;
19:27:10.726,-0.97021,0.04614,-0.05444;
19:27:10.736,-0.97192,0.06226,-0.08398;
19:27:10.746,-0.97583,0.06665,-0.10327;
19:27:10.756,-0.96704,0.06128,-0.10913;
19:27:10.766,-0.97021,0.06665,-0.12866;
19:27:10.776,-0.97852,0.09033,-0.12671;
19:27:10.786,-0.98633,0.08496,-0.08887;
19:27:10.796,-0.97095,0.04736,-0.07764;
19:27:10.806,-0.96484,0.08569,-0.08960;
19:27:10.816,-1.04395,0.15723,-0.01440;
19:27:10.826,-1.02441,0.14526,-0.14136;
19:27:10.836,-0.97412,0.14111,-0.15137;
19:27:10.846,-0.96631,0.11157,-0.11035;
19:27:10.856,-0.96558,0.06885,-0.17529;
19:27:10.866,-0.94531,0.07617,-0.15918;
19:27:10.876,-0.95703,0.10547,-0.11890;
19:27:10.886,-0.96045,0.13086,-0.08911;
19:27:10.896,-0.97534,0.13232,-0.06274;
19:27:10.906,-0.99805,0.14429,-0.04590;
19:27:10.916,-1.01074,0.18286,-0.09473;
19:27:10.926,-1.01978,0.20190,-0.13208;
19:27:10.936,-1.03003,0.20679,-0.15161;
19:27:10.946,-1.00269,0.19824,-0.21509;
19:27:10.956,-0.95361,0.18286,-0.20386;
19:27:10.966,-0.94702,0.16675,-0.17334;
19:27:10.976,-0.95776,0.18115,-0.17773;
19:27:10.986,-0.95679,0.18188,-0.13989;
19:27:10.996,-0.96118,0.14355,-0.09082;
19:27:11.006,-0.98364,0.15991,-0.09302;
19:27:11.016,-0.99609,0.17603,-0.09937;
19:27:11.026,-1.00317,0.15479,-0.09497;
19:27:11.036,-1.00244,0.14038,-0.10840;
19:27:11.046,-0.98071,0.13818,-0.15088;
19:27:11.056,-0.95459,0.12695,-0.17334;
19:27:11.066,-0.96094,0.11206,-0.15723;
19:27:11.076,-0.98999,0.12500,-0.14575;
19:27:11.086,-0.99805,0.15234,-0.12598;
19:27:11.096,-1.00195,0.18359,-0.09595;
19:27:11.106,-1.00269,0.21509,-0.05640;
19:27:11.116,-1.00659,0.19971,-0.00537;
19:27:11.126,-1.01245,0.17578,0.00391;
19:27:11.136,-1.00879,0.17163,-0.01831;
19:27:11.146,-0.99268,0.13745,-0.04688;
19:27:11.156,-0.96924,0.12036,-0.08154;
19:27:11.166,-0.95972,0.12378,-0.09473;
19:27:11.176,-0.96533,0.12402,-0.07446;
19:27:11.186,-0.97314,0.10864,-0.06885;
19:27:11.196,-0.97119,0.07886,-0.09204;
19:27:11.206,-0.96118,0.09668,-0.11084;
19:27:11.216,-0.97363,0.15356,-0.10742;
19:27:11.226,-1.00391,0.19019,-0.07349;
19:27:11.236,-1.02246,0.16919,-0.02417;
19:27:11.246,-1.03271,0.13525,-0.00098;
19:27:11.256,-1.03638,0.13501,-0.00830;
19:27:11.266,-1.02393,0.13086,-0.02881;
19:27:11.276,-0.98877,0.12329,-0.03564;
19:27:11.286,-0.97021,0.10620,-0.02051;
19:27:11.296,-0.99561,0.06958,-0.02905;
19:27:11.306,-1.01147,0.06030,-0.00684;
19:27:11.316,-1.01147,0.06274,-0.01074;
19:27:11.326,-1.01050,0.09521,-0.01636;
19:27:11.336,-1.03955,0.13037,-0.05054;
19:27:11.346,-1.06470,0.13574,-0.05566;
19:27:11.356,-1.06689,0.10815,-0.03833;
19:27:11.366,-1.04761,0.08325,-0.03809;
19:27:11.376,-0.98413,0.13086,-0.09985;
19:27:11.386,-0.96045,0.16479,-0.14771;
19:27:11.396,-0.96704,0.14941,-0.16455;
19:27:11.406,-0.97046,0.12085,-0.14746;
19:27:11.416,-0.95654,0.13721,-0.11646;
19:27:11.426,-0.95923,0.13916,-0.10034;
19:27:11.436,-0.96948,0.13159,-0.09155;
19:27:11.446,-0.98853,0.12744,-0.05688;
19:27:11.456,-0.99316,0.09326,-0.10498;
19:27:11.466,-0.98584,0.12280,-0.11133;
19:27:11.476,-0.99268,0.11255,-0.11890;
19:27:11.486,-1.00269,0.12134,-0.21704;
19:27:11.496,-0.98145,-0.01611,-0.21558;
19:27:11.506,-0.96509,-0.10791,-0.11719;
19:27:11.516,-0.98950,0.12500,-0.09473;
19:27:11.526,-1.03491,0.11792,-0.06982;
19:27:11.536,-1.00342,0.13403,-0.15283;
19:27:11.546,-0.93433,0.17773,-0.21167;
19:27:11.556,-0.94629,0.20947,-0.23242;
19:27:11.566,-0.96533,0.12622,-0.19092;
19:27:11.576,-0.96899,0.04639,-0.14917;
19:27:11.586,-0.97046,0.06567,-0.12793;
19:27:11.596,-0.97046,0.07275,-0.10815;
19:27:11.606,-0.98682,0.05371,-0.11914;
19:27:11.616,-0.99292,0.04443,-0.13013;
19:27:11.626,-0.98438,0.04810,-0.12671;
19:27:11.636,-0.97510,0.05151,-0.12256;
19:27:11.646,-0.97363,0.04565,-0.12695;
19:27:11.656,-0.98291,0.05103,-0.13989;
19:27:11.666,-0.99072,0.06689,-0.15454;
19:27:11.676,-1.00171,0.08594,-0.16699;
19:27:11.686,-1.00806,0.08057,-0.15918;
19:27:11.696,-1.00342,0.06519,-0.14746;
19:27:11.706,-0.99780,0.05640,-0.15137;
19:27:11.716,-1.00049,0.02661,-0.16309;
19:27:11.726,-0.99829,0.01245,-0.15601;
19:27:11.736,-0.99902,0.02148,-0.14551;
19:27:11.746,-0.98755,0.01440,-0.11841;
19:27:11.756,-0.98584,0.00464,-0.09888;
19:27:11.766,-0.98901,0.00537,-0.11938;
19:27:11.776,-0.99463,0.02808,-0.11572;
19:27:11.786,-0.99316,0.02856,-0.12817;
19:27:11.796,-0.97485,0.00586,-0.14355;
19:27:11.806,-0.97217,0.01733,-0.12988;
19:27:11.816,-0.97681,0.06470,-0.09644;
19:27:11.826,-1.00903,0.08472,-0.10498;
19:27:11.836,-0.97119,0.00439,-0.10742;
19:27:11.846,-0.96069,-0.03906,-0.09009;
19:27:11.856,-1.00293,-0.04712,-0.05518;
19:27:11.866,-1.00415,-0.06372,-0.04126;
19:27:11.876,-1.01733,-0.04150,-0.06592;
19:27:11.886,-1.00708,-0.01270,-0.05298;
19:27:11.896,-1.00732,-0.00854,-0.03125;
19:27:11.906,-1.03369,-0.03711,0.00562;
19:27:11.916,-1.06396,-0.06177,0.03394;
19:27:11.926,-1.07202,-0.08545,0.02856;
19:27:11.936,-1.06494,-0.06738,-0.02246;
19:27:11.946,-1.03223,-0.01392,-0.06323;
19:27:11.956,-0.99390,0.06738,-0.06934;
19:27:11.966,-1.00269,0.07813,-0.07837;
19:27:11.976,-1.02075,0.04395,-0.07959;
19:27:11.986,-1.02563,0.01245,-0.08252;
19:27:11.996,-1.01782,0.03955,-0.10425;
19:27:12.006,-1.00391,0.06787,-0.16162;
19:27:12.016,-0.97876,0.07227,-0.21118;
19:27:12.026,-0.95923,0.05664,-0.22144;
19:27:12.036,-0.96069,0.01416,-0.19629;
19:27:12.046,-0.96094,-0.03003,-0.14941;
19:27:12.056,-0.96777,-0.01831,-0.09863;
19:27:12.066,-0.99072,0.04688,-0.07983;
19:27:12.076,-1.01538,0.03345,-0.07080;
19:27:12.086,-1.01611,-0.02783,-0.08569;
19:27:12.096,-1.00171,-0.01318,-0.13354;
19:27:12.106,-0.97046,0.02710,-0.14722;
19:27:12.116,-0.95239,0.03467,-0.12939;
19:27:12.126,-0.96826,0.02026,-0.09302;
19:27:12.136,-0.99829,-0.00122,-0.09106;
19:27:12.146,-1.01318,-0.01099,-0.09375;
19:27:12.156,-1.01001,0.02100,-0.08643;
19:27:12.166,-1.00317,0.07178,-0.09058;
19:27:12.176,-0.99756,0.07227,-0.08838;
19:27:12.186,-1.00977,0.05396,-0.10840;
19:27:12.196,-1.03564,0.02563,-0.11206;
19:27:12.206,-1.03198,-0.00806,-0.11011;
19:27:12.216,-0.99438,0.01074,-0.13818;
19:27:12.226,-0.96338,0.02979,-0.16479;
19:27:12.236,-0.96655,0.03247,-0.16479;
19:27:12.246,-0.97534,0.06958,-0.16235;
19:27:12.256,-0.96704,0.10913,-0.16699;
19:27:12.266,-0.96777,0.08716,-0.14600;
19:27:12.276,-0.98145,0.09863,-0.14917;
19:27:12.286,-1.00293,0.10718,-0.13794;
19:27:12.296,-1.01416,0.02832,-0.12012;
19:27:12.306,-1.00830,0.01392,-0.14160;
19:27:12.316,-0.98901,0.05933,-0.16284;
19:27:12.326,-0.96997,0.09839,-0.17114;
19:27:12.336,-0.96509,0.11279,-0.17896;
19:27:12.346,-0.96558,0.11572,-0.20508;
19:27:12.356,-0.96948,0.11621,-0.21387;
19:27:12.366,-0.98804,0.06421,-0.16309;
19:27:12.376,-1.00586,0.02759,-0.12500;
19:27:12.386,-1.00806,0.04858,-0.10620;
19:27:12.396,-1.01001,0.04541,-0.07495;
19:27:12.406,-1.00952,0.02466,-0.06104;
19:27:12.416,-1.01270,0.02197,-0.05420;
19:27:12.426,-0.99365,0.02686,-0.01294;
19:27:12.436,-0.99780,0.02417,-0.04077;
19:27:12.446,-0.99609,0.04028,-0.08545;
19:27:12.456,-0.98608,0.02856,-0.08691;
19:27:12.466,-0.98022,0.00513,-0.05273;
19:27:12.476,-0.98633,0.01074,-0.00244;
19:27:12.486,-1.00488,0.01880,0.03174;
19:27:12.496,-1.02026,0.00903,0.04004;
19:27:12.506,-1.01855,0.01147,0.02539;
19:27:12.516,-1.00610,0.01660,0.00122;
19:27:12.526,-0.99048,0.03369,0.00244;
19:27:12.536,-0.98706,0.05005,0.01294;
19:27:12.546,-0.99341,0.05933,0.02002;
19:27:12.556,-1.00537,0.06567,-0.01685;
19:27:12.566,-1.01123,0.05884,-0.08911;
19:27:12.576,-0.99634,0.06055,-0.12524;
19:27:12.586,-0.99097,0.04785,-0.09326;
19:27:12.596,-1.00781,0.04517,-0.05493;
19:27:12.606,-1.01904,0.07544,-0.04272;
19:27:12.616,-1.02661,0.05273,-0.00610;
19:27:12.626,-1.02539,0.03442,0.02759;
19:27:12.636,-1.01709,0.05420,0.02441;
19:27:12.646,-1.00952,0.06592,0.02563;
19:27:12.656,-0.99780,0.05151,0.03345;
19:27:12.666,-0.98877,0.04053,0.03809;
19:27:12.676,-0.99023,0.05957,0.02441;
19:27:12.686,-1.00342,0.08374,-0.00220;
19:27:12.696,-1.01099,0.09399,-0.02954;
19:27:12.706,-1.01343,0.08716,-0.03320;
19:27:12.716,-1.01636,0.07397,0.03760;
19:27:12.726,-1.02930,0.08472,0.07495;
19:27:12.736,-1.06738,0.11011,0.09668;
19:27:12.746,-1.01978,0.09961,0.14014;
19:27:12.756,-1.02051,0.11401,0.08398;
19:27:12.766,-1.02026,0.13159,0.06079;
19:27:12.776,-1.05054,0.11255,0.04370;
19:27:12.786,-1.05176,0.12305,0.01880;
19:27:12.796,-1.04712,0.13037,0.02173;
19:27:12.806,-1.03027,0.11865,0.03491;
19:27:12.816,-1.02417,0.09375,0.03687;
19:27:12.826,-1.02783,0.07153,0.03711;
19:27:12.836,-1.03394,0.09375,0.02954;
19:27:12.846,-1.03442,0.11670,0.01440;
19:27:12.856,-1.01855,0.10620,0.00879;
19:27:12.866,-0.98950,0.06470,0.02173;
