time,acc_x,acc_y,acc_z
19:26:24.469,0.70166,-0.08936,-0.71680;
19:26:24.479,0.71045,-0.13232,-0.72778;
19:26:24.489,0.71289,-0.15186,-0.71338;
19:26:24.499,0.70581,-0.12329,-0.70581;
19:26:24.509,0.71289,-0.08325,-0.70068;
19:26:24.519,0.72095,-0.03271,-0.71143;
19:26:24.529,0.72388,-0.00977,-0.71973;
19:26:24.539,0.71436,-0.02075,-0.70313;
19:26:24.549,0.70752,-0.03076,-0.70898;
19:26:24.559,0.72729,-0.06836,-0.72485;
19:26:24.569,0.73022,-0.07520,-0.72266;
19:26:24.579,0.72681,-0.03857,-0.72241;
19:26:24.589,0.73779,-0.00635,-0.72949;
19:26:24.599,0.74585,0.02100,-0.73096;
19:26:24.609,0.74707,0.04907,-0.73145;
19:26:24.619,0.75195,0.03149,-0.73730;
19:26:24.629,0.75146,-0.04370,-0.72754;
19:26:24.639,0.73047,-0.12622,-0.70093;
19:26:24.649,0.72192,-0.15137,-0.68237;
19:26:24.659,0.74927,-0.10962,-0.69360;
19:26:24.669,0.74707,-0.03296,-0.76538;
19:26:24.679,0.76123,-0.03833,-0.78564;
19:26:24.689,0.76929,-0.03320,-0.76270;
19:26:24.699,0.76343,-0.05664,-0.73267;
19:26:24.709,0.74902,-0.07813,-0.70654;
19:26:24.719,0.73584,-0.09692,-0.67407;
19:26:24.729,0.72510,-0.09473,-0.67261;
19:26:24.739,0.72705,-0.06592,-0.69727;
19:26:24.749,0.73901,-0.03125,-0.72217;
19:26:24.759,0.75415,-0.00513,-0.72119;
19:26:24.769,0.76367,0.03516,-0.70093;
19:26:24.779,0.76416,-0.07104,-0.68335;
19:26:24.789,0.76050,-0.11133,-0.68896;
19:26:24.799,0.76538,-0.09155,-0.71436;
19:26:24.809,0.77295,-0.06323,-0.73389;
19:26:24.819,0.77588,-0.05859,-0.73804;
19:26:24.829,0.77075,-0.05884,-0.71143;
19:26:24.839,0.76123,-0.05371,-0.68701;
19:26:24.849,0.74072,-0.07666,-0.67139;
19:26:24.859,0.72778,-0.07813,-0.67603;
19:26:24.869,0.73438,-0.05908,-0.71484;
19:26:24.879,0.74634,-0.03809,-0.74463;
19:26:24.889,0.75537,-0.01440,-0.75928;
19:26:24.899,0.75635,-0.03247,-0.75122;
19:26:24.909,0.75024,-0.07959,-0.72144;
19:26:24.919,0.72852,-0.10425,-0.68066;
19:26:24.929,0.71094,-0.06738,-0.66919;
19:26:24.939,0.72144,-0.05176,-0.69800;
19:26:24.949,0.72876,-0.04736,-0.71558;
19:26:24.959,0.73486,-0.05688,-0.72900;
19:26:24.969,0.74707,-0.08105,-0.73193;
19:26:24.979,0.75073,-0.10083,-0.71777;
19:26:24.989,0.74365,-0.09814,-0.70923;
19:26:24.999,0.74268,-0.09302,-0.70020;
19:26:25.009,0.74023,-0.07251,-0.69800;
19:26:25.019,0.74561,-0.05176,-0.71045;
19:26:25.029,0.75391,-0.04736,-0.72705;
19:26:25.039,0.75464,-0.04224,-0.73340;
19:26:25.049,0.75024,-0.05493,-0.72144;
19:26:25.059,0.73511,-0.08252,-0.70215;
19:26:25.069,0.71948,-0.07788,-0.69678;
19:26:25.079,0.71851,-0.05176,-0.71729;
19:26:25.089,0.72852,-0.04077,-0.73022;
19:26:25.099,0.73560,-0.03540,-0.71118;
19:26:25.109,0.74146,-0.05762,-0.69336;
19:26:25.119,0.74341,-0.05347,-0.69897;
19:26:25.129,0.74976,-0.06104,-0.71191;
19:26:25.139,0.75464,-0.06714,-0.72437;
19:26:25.149,0.74902,-0.07544,-0.72266;
19:26:25.159,0.73804,-0.08521,-0.70947;
19:26:25.169,0.73096,-0.09204,-0.70093;
19:26:25.179,0.72681,-0.09521,-0.70435;
19:26:25.189,0.72388,-0.08862,-0.70972;
19:26:25.199,0.72339,-0.08447,-0.71460;
19:26:25.209,0.72974,-0.08032,-0.72510;
19:26:25.219,0.72656,-0.08813,-0.72925;
19:26:25.229,0.72095,-0.08130,-0.72388;
19:26:25.239,0.72192,-0.06665,-0.72412;
19:26:25.249,0.72266,-0.05688,-0.72070;
19:26:25.259,0.72754,-0.04053,-0.71509;
19:26:25.269,0.73755,-0.04297,-0.71509;
19:26:25.279,0.74634,-0.04150,-0.70483;
19:26:25.289,0.74292,-0.03320,-0.69385;
19:26:25.299,0.74072,-0.05200,-0.68872;
19:26:25.309,0.73584,-0.06860,-0.69116;
19:26:25.319,0.72827,-0.06689,-0.70679;
19:26:25.329,0.73706,-0.07593,-0.72168;
19:26:25.339,0.74268,-0.07666,-0.72754;
19:26:25.349,0.74316,-0.05884,-0.72900;
19:26:25.359,0.75928,-0.06909,-0.71997;
19:26:25.369,0.76172,-0.07813,-0.70654;
19:26:25.379,0.75562,-0.07471,-0.70117;
19:26:25.389,0.75488,-0.06592,-0.70679;
19:26:25.399,0.75195,-0.05762,-0.72070;
19:26:25.409,0.74707,-0.03638,-0.73096;
19:26:25.419,0.74463,-0.04053,-0.71338;
19:26:25.429,0.74268,-0.07690,-0.70142;
19:26:25.439,0.73413,-0.05957,-0.70630;
19:26:25.449,0.74048,-0.07202,-0.71533;
19:26:25.459,0.74365,-0.07813,-0.71558;
19:26:25.469,0.73364,-0.06885,-0.71240;
19:26:25.479,0.72827,-0.05884,-0.71509;
19:26:25.489,0.72754,-0.05322,-0.72046;
19:26:25.499,0.72583,-0.04956,-0.72217;
19:26:25.509,0.73096,-0.05518,-0.71802;
19:26:25.519,0.73560,-0.06665,-0.70459;
19:26:25.529,0.73267,-0.07202,-0.69360;
19:26:25.539,0.72510,-0.07153,-0.68457;
19:26:25.549,0.71289,-0.08667,-0.67627;
19:26:25.559,0.70972,-0.07935,-0.69336;
19:26:25.569,0.72168,-0.06030,-0.71436;
19:26:25.579,0.74487,-0.02979,-0.71362;
19:26:25.589,0.74438,-0.02734,-0.69604;
19:26:25.599,0.74146,-0.03857,-0.67554;
19:26:25.609,0.73877,-0.06372,-0.68530;
19:26:25.619,0.73340,-0.07104,-0.71118;
19:26:25.629,0.73022,-0.05688,-0.73560;
19:26:25.639,0.72534,-0.06738,-0.73657;
19:26:25.649,0.72412,-0.06592,-0.73926;
19:26:25.659,0.73022,-0.07617,-0.73047;
19:26:25.669,0.72192,-0.08911,-0.70605;
19:26:25.679,0.72290,-0.07227,-0.70605;
19:26:25.689,0.75024,-0.06372,-0.70264;
19:26:25.699,0.75146,-0.07080,-0.70728;
19:26:25.709,0.75879,-0.04810,-0.72363;
19:26:25.719,0.77173,-0.00806,-0.72583;
19:26:25.729,0.77246,-0.02832,-0.76147;
19:26:25.739,0.76929,-0.06812,-0.69092;
19:26:25.749,0.76831,-0.06152,-0.66406;
19:26:25.759,0.76685,-0.06714,-0.65967;
19:26:25.769,0.75879,-0.09448,-0.65649;
19:26:25.779,0.75928,-0.10474,-0.67310;
19:26:25.789,0.76147,-0.09131,-0.68799;
19:26:25.799,0.75537,-0.09888,-0.67749;
19:26:25.809,0.75635,-0.08325,-0.67749;
19:26:25.819,0.76221,-0.04712,-0.70190;
19:26:25.829,0.76294,-0.01636,-0.71411;
19:26:25.839,0.76392,0.00317,-0.72217;
19:26:25.849,0.76733,0.01074,-0.72681;
19:26:25.859,0.76440,-0.00830,-0.72437;
19:26:25.869,0.75879,-0.02856,-0.72925;
19:26:25.879,0.75757,-0.02954,-0.73145;
19:26:25.889,0.74658,-0.03760,-0.71289;
19:26:25.899,0.72925,-0.06665,-0.67651;
19:26:25.909,0.71411,-0.08301,-0.66309;
19:26:25.919,0.71338,-0.08740,-0.68213;
19:26:25.929,0.71460,-0.09375,-0.69531;
19:26:25.939,0.71313,-0.09351,-0.70239;
19:26:25.949,0.71533,-0.08423,-0.70557;
19:26:25.959,0.72705,-0.06958,-0.70996;
19:26:25.969,0.74097,-0.06787,-0.71069;
19:26:25.979,0.74536,-0.07935,-0.69922;
19:26:25.989,0.74854,-0.08032,-0.68555;
19:26:25.999,0.75391,-0.06470,-0.69336;
19:26:26.009,0.76025,-0.05176,-0.71777;
19:26:26.019,0.76196,-0.04761,-0.72876;
19:26:26.029,0.75879,-0.04736,-0.73242;
19:26:26.039,0.75586,-0.04492,-0.72974;
19:26:26.049,0.75439,-0.05029,-0.71704;
19:26:26.059,0.74219,-0.05005,-0.70020;
19:26:26.069,0.74390,-0.04712,-0.72168;
19:26:26.079,0.74194,-0.05029,-0.72534;
19:26:26.089,0.74243,-0.05054,-0.72583;
19:26:26.099,0.74609,-0.05615,-0.72192;
19:26:26.109,0.74243,-0.06494,-0.70679;
19:26:26.119,0.73413,-0.06396,-0.68726;
19:26:26.129,0.73022,-0.06543,-0.68628;
19:26:26.139,0.73730,-0.07349,-0.70557;
19:26:26.149,0.74609,-0.06421,-0.72363;
19:26:26.159,0.74707,-0.04980,-0.72583;
19:26:26.169,0.74268,-0.04956,-0.72583;
19:26:26.179,0.74146,-0.06543,-0.71655;
19:26:26.189,0.73267,-0.06836,-0.70142;
19:26:26.199,0.72705,-0.04980,-0.69824;
19:26:26.209,0.74023,-0.04419,-0.70386;
19:26:26.219,0.74927,-0.04028,-0.71338;
19:26:26.229,0.75659,-0.04663,-0.71924;
19:26:26.239,0.75342,-0.05225,-0.71313;
19:26:26.249,0.74561,-0.07153,-0.70410;
19:26:26.259,0.73340,-0.08130,-0.70044;
19:26:26.269,0.72827,-0.05762,-0.71143;
19:26:26.279,0.73267,-0.04175,-0.71045;
19:26:26.289,0.72876,-0.02783,-0.70752;
19:26:26.299,0.73193,-0.03882,-0.72021;
19:26:26.309,0.73438,-0.07520,-0.71753;
19:26:26.319,0.72827,-0.08569,-0.70972;
19:26:26.329,0.72754,-0.05640,-0.70532;
19:26:26.339,0.73486,-0.04956,-0.70947;
19:26:26.349,0.75000,-0.03540,-0.72559;
19:26:26.359,0.74927,-0.04126,-0.71484;
19:26:26.369,0.75024,-0.04150,-0.70532;
19:26:26.379,0.74536,-0.05151,-0.69849;
19:26:26.389,0.72534,-0.06030,-0.69507;
19:26:26.399,0.73389,-0.03174,-0.71851;
19:26:26.409,0.74829,-0.02588,-0.72900;
19:26:26.419,0.75073,-0.03320,-0.73096;
19:26:26.429,0.75269,-0.05029,-0.71460;
19:26:26.439,0.74976,-0.06519,-0.69824;
19:26:26.449,0.74609,-0.07080,-0.69727;
19:26:26.459,0.74194,-0.07275,-0.71045;
19:26:26.469,0.74512,-0.04370,-0.72437;
19:26:26.479,0.74585,-0.02441,-0.72485;
19:26:26.489,0.74927,-0.03613,-0.72754;
19:26:26.499,0.74927,-0.05615,-0.71899;
19:26:26.509,0.73877,-0.09473,-0.68994;
19:26:26.519,0.72803,-0.10181,-0.67700;
19:26:26.529,0.72461,-0.07202,-0.69067;
19:26:26.539,0.73291,-0.04370,-0.70923;
19:26:26.549,0.73975,-0.01904,-0.72266;
19:26:26.559,0.74536,-0.03809,-0.71558;
19:26:26.569,0.74561,-0.05957,-0.71094;
19:26:26.579,0.75024,-0.06641,-0.71069;
19:26:26.589,0.74487,-0.06421,-0.71118;
19:26:26.599,0.74170,-0.05493,-0.70288;
19:26:26.609,0.73877,-0.04028,-0.70239;
19:26:26.619,0.73706,-0.03418,-0.70410;
19:26:26.629,0.74536,-0.05469,-0.72852;
19:26:26.639,0.75122,-0.04858,-0.73071;
19:26:26.649,0.74438,-0.04297,-0.71802;
19:26:26.659,0.73608,-0.04443,-0.70703;
19:26:26.669,0.73071,-0.05005,-0.69678;
19:26:26.679,0.73096,-0.04517,-0.70068;
19:26:26.689,0.74048,-0.05078,-0.70776;
19:26:26.699,0.74048,-0.06567,-0.69922;
19:26:26.709,0.73975,-0.07080,-0.70386;
19:26:26.719,0.74854,-0.05884,-0.71753;
19:26:26.729,0.75684,-0.04321,-0.72510;
19:26:26.739,0.75537,-0.04175,-0.71729;
19:26:26.749,0.74951,-0.04370,-0.70801;
19:26:26.759,0.75073,-0.04785,-0.71729;
19:26:26.769,0.75000,-0.05322,-0.72290;
19:26:26.779,0.74561,-0.04712,-0.72021;
19:26:26.789,0.73901,-0.04468,-0.71436;
19:26:26.799,0.73804,-0.04272,-0.70703;
19:26:26.809,0.73901,-0.04126,-0.69238;
19:26:26.819,0.73071,-0.04858,-0.68091;
19:26:26.829,0.72485,-0.05737,-0.69360;
19:26:26.839,0.73853,-0.05078,-0.73291;
19:26:26.849,0.73779,-0.05176,-0.72998;
19:26:26.859,0.74634,-0.04688,-0.72729;
19:26:26.869,0.75244,-0.04297,-0.71387;
19:26:26.879,0.74512,-0.04712,-0.69849;
19:26:26.889,0.74146,-0.04736,-0.70215;
19:26:26.899,0.74243,-0.03467,-0.71436;
19:26:26.909,0.74121,-0.03369,-0.72266;
19:26:26.919,0.74121,-0.03662,-0.72559;
19:26:26.929,0.74341,-0.04346,-0.72144;
19:26:26.939,0.73755,-0.04736,-0.71143;
19:26:26.949,0.73169,-0.05225,-0.69922;
19:26:26.959,0.72705,-0.04956,-0.71387;
19:26:26.969,0.74512,-0.05859,-0.72363;
19:26:26.979,0.74854,-0.05542,-0.72852;
19:26:26.989,0.75586,-0.05469,-0.72998;
19:26:26.999,0.75684,-0.06665,-0.71582;
19:26:27.009,0.74561,-0.06982,-0.70557;
19:26:27.019,0.73730,-0.06152,-0.70190;
19:26:27.029,0.73779,-0.05200,-0.71509;
19:26:27.039,0.74536,-0.04785,-0.72998;
19:26:27.049,0.74585,-0.05859,-0.72314;
19:26:27.059,0.74268,-0.05762,-0.71338;
19:26:27.069,0.74243,-0.05249,-0.70630;
19:26:27.079,0.73975,-0.05518,-0.70435;
19:26:27.089,0.73682,-0.04614,-0.71118;
19:26:27.099,0.72852,-0.04053,-0.70850;
19:26:27.109,0.72827,-0.03906,-0.69751;
19:26:27.119,0.73560,-0.04004,-0.70557;
19:26:27.129,0.74365,-0.04297,-0.71606;
19:26:27.139,0.74731,-0.04199,-0.72046;
19:26:27.149,0.74194,-0.04663,-0.72046;
19:26:27.159,0.73999,-0.05518,-0.71582;
19:26:27.169,0.73071,-0.06665,-0.71216;
19:26:27.179,0.72070,-0.05786,-0.71289;
19:26:27.189,0.72388,-0.05347,-0.71436;
19:26:27.199,0.73633,-0.05444,-0.71411;
19:26:27.209,0.74268,-0.04956,-0.72095;
19:26:27.219,0.74512,-0.05591,-0.71973;
19:26:27.229,0.74438,-0.05347,-0.71851;
19:26:27.239,0.74194,-0.04785,-0.72290;
19:26:27.249,0.73901,-0.04956,-0.72119;
19:26:27.259,0.72852,-0.05151,-0.71216;
19:26:27.269,0.73315,-0.05249,-0.71338;
19:26:27.279,0.74463,-0.04785,-0.71655;
19:26:27.289,0.74292,-0.06421,-0.70850;
19:26:27.299,0.73389,-0.05640,-0.71533;
19:26:27.309,0.74390,-0.05151,-0.72217;
19:26:27.319,0.75024,-0.04248,-0.72388;
19:26:27.329,0.75098,-0.04761,-0.71802;
19:26:27.339,0.75171,-0.04712,-0.71118;
19:26:27.349,0.75342,-0.04565,-0.71045;
19:26:27.359,0.75098,-0.05225,-0.70996;
19:26:27.369,0.74585,-0.05835,-0.71631;
19:26:27.379,0.74609,-0.03882,-0.72437;
19:26:27.389,0.74683,-0.02905,-0.72656;
19:26:27.399,0.74463,-0.03979,-0.71851;
19:26:27.409,0.74268,-0.04785,-0.71240;
19:26:27.419,0.74146,-0.06836,-0.70288;
19:26:27.429,0.73462,-0.07153,-0.69336;
19:26:27.439,0.73193,-0.05249,-0.69946;
19:26:27.449,0.73950,-0.03784,-0.71606;
19:26:27.459,0.73877,-0.03296,-0.72192;
19:26:27.469,0.73267,-0.04053,-0.72559;
19:26:27.479,0.73291,-0.04834,-0.72900;
19:26:27.489,0.73364,-0.05933,-0.71997;
19:26:27.499,0.72729,-0.08032,-0.69946;
19:26:27.509,0.71875,-0.07300,-0.69263;
19:26:27.519,0.72778,-0.05420,-0.70605;
19:26:27.529,0.73804,-0.03979,-0.71582;
19:26:27.539,0.74170,-0.03540,-0.72241;
19:26:27.549,0.74170,-0.04590,-0.72217;
19:26:27.559,0.74121,-0.06494,-0.70825;
19:26:27.569,0.73657,-0.08057,-0.69653;
19:26:27.579,0.74219,-0.08203,-0.68848;
19:26:27.589,0.74170,-0.06616,-0.70410;
19:26:27.599,0.75195,-0.06470,-0.71729;
19:26:27.609,0.76001,-0.04736,-0.71094;
19:26:27.619,0.76025,-0.05078,-0.71802;
19:26:27.629,0.76440,-0.05396,-0.72412;
19:26:27.639,0.75171,-0.04395,-0.70874;
19:26:27.649,0.74731,-0.05371,-0.69116;
19:26:27.659,0.74878,-0.04761,-0.70459;
19:26:27.669,0.75024,-0.03418,-0.71143;
19:26:27.679,0.74194,-0.03394,-0.70337;
19:26:27.689,0.73657,-0.04028,-0.69775;
19:26:27.699,0.73730,-0.04907,-0.70166;
19:26:27.709,0.74292,-0.07031,-0.70801;
19:26:27.719,0.74536,-0.08154,-0.71313;
19:26:27.729,0.75024,-0.06274,-0.72241;
19:26:27.739,0.75635,-0.03052,-0.73096;
19:26:27.749,0.75586,-0.01978,-0.73096;
19:26:27.759,0.75366,-0.02515,-0.71655;
19:26:27.769,0.74463,-0.03687,-0.70801;
19:26:27.779,0.74780,-0.05640,-0.71118;
19:26:27.789,0.74097,-0.08691,-0.68481;
19:26:27.799,0.73096,-0.09692,-0.67334;
19:26:27.809,0.74585,-0.06152,-0.69873;
19:26:27.819,0.76196,-0.00854,-0.72217;
19:26:27.829,0.76514,-0.00073,-0.73096;
19:26:27.839,0.75562,-0.03711,-0.69873;
19:26:27.849,0.72998,-0.05688,-0.66626;
19:26:27.859,0.71851,-0.06323,-0.67236;
19:26:27.869,0.72510,-0.04639,-0.69751;
19:26:27.879,0.72095,-0.01611,-0.71094;
19:26:27.889,0.73047,0.00757,-0.73364;
19:26:27.899,0.73779,0.01343,-0.74756;
19:26:27.909,0.73901,0.00342,-0.73682;
19:26:27.919,0.73633,-0.00513,-0.72607;
19:26:27.929,0.73462,-0.01807,-0.72388;
19:26:27.939,0.74463,-0.02466,-0.73438;
19:26:27.949,0.75171,-0.00928,-0.74365;
19:26:27.959,0.75610,-0.01660,-0.68091;
19:26:27.969,0.73047,-0.13452,-0.61646;
19:26:27.979,0.76245,-0.06128,-0.70947;
19:26:27.989,0.76709,-0.04028,-0.74731;
19:26:27.999,0.76709,-0.02222,-0.75610;
19:26:28.009,0.76392,-0.03638,-0.73950;
19:26:28.019,0.75220,-0.06226,-0.71045;
19:26:28.029,0.74072,-0.07983,-0.67041;
19:26:28.039,0.72363,-0.09888,-0.63574;
19:26:28.049,0.72485,-0.11182,-0.64087;
19:26:28.059,0.75879,-0.07666,-0.69653;
19:26:28.069,0.79224,0.01807,-0.77490;
19:26:28.079,0.78516,0.10254,-0.80469;
19:26:28.089,0.77734,0.08618,-0.77344;
19:26:28.099,0.76880,0.06982,-0.72681;
19:26:28.109,0.75684,0.06934,-0.68604;
19:26:28.119,0.74512,0.02075,-0.64502;
19:26:28.129,0.73047,-0.02661,-0.63623;
19:26:28.139,0.73950,-0.05786,-0.66040;
19:26:28.149,0.74780,-0.03125,-0.69946;
19:26:28.159,0.75171,0.00610,-0.73096;
19:26:28.169,0.75415,-0.00952,-0.73779;
19:26:28.179,0.75903,-0.05371,-0.73389;
19:26:28.189,0.75757,-0.09106,-0.71265;
19:26:28.199,0.74878,-0.10254,-0.68530;
19:26:28.209,0.73315,-0.08765,-0.67798;
19:26:28.219,0.73950,-0.06177,-0.68872;
19:26:28.229,0.74878,-0.04224,-0.70996;
19:26:28.239,0.75024,-0.01685,-0.73828;
19:26:28.249,0.75830,0.00146,-0.74756;
19:26:28.259,0.75024,-0.00659,-0.73169;
19:26:28.269,0.73877,0.00488,-0.70923;
19:26:28.279,0.73706,-0.01978,-0.69849;
19:26:28.289,0.73389,-0.09131,-0.67944;
19:26:28.299,0.71704,-0.10815,-0.69604;
19:26:28.309,0.72534,0.01196,-0.74023;
19:26:28.319,0.74634,0.07568,-0.71924;
19:26:28.329,0.75415,0.07031,-0.70166;
19:26:28.339,0.74585,0.05640,-0.69116;
19:26:28.349,0.74585,0.02197,-0.69995;
19:26:28.359,0.74561,-0.01978,-0.70703;
19:26:28.369,0.74048,-0.03442,-0.71802;
19:26:28.379,0.74463,-0.05591,-0.73291;
19:26:28.389,0.74780,-0.07300,-0.72632;
19:26:28.399,0.75049,-0.08472,-0.69897;
19:26:28.409,0.73926,-0.07910,-0.66016;
19:26:28.419,0.73120,-0.03125,-0.65161;
19:26:28.429,0.74146,-0.01074,-0.67358;
19:26:28.439,0.74634,-0.03687,-0.69385;
19:26:28.449,0.74585,-0.04565,-0.71631;
19:26:28.459,0.74316,-0.05591,-0.72339;
19:26:28.469,0.74634,-0.07202,-0.72583;
19:26:28.479,0.75171,-0.07031,-0.72925;
19:26:28.489,0.75464,-0.03857,-0.71484;
19:26:28.499,0.76636,-0.01782,-0.70190;
19:26:28.509,0.75366,0.05249,-0.71948;
19:26:28.519,0.75171,0.05347,-0.72217;
19:26:28.529,0.75928,-0.00122,-0.72485;
19:26:28.539,0.75146,-0.06494,-0.73584;
19:26:28.549,0.74854,-0.09985,-0.72852;
19:26:28.559,0.75659,-0.04102,-0.71826;
19:26:28.569,0.76392,-0.00244,-0.69043;
19:26:28.579,0.74731,0.05591,-0.65601;
19:26:28.589,0.73682,0.05444,-0.66357;
19:26:28.599,0.75269,-0.00244,-0.70166;
19:26:28.609,0.75977,-0.02856,-0.72144;
19:26:28.619,0.74536,-0.02661,-0.71436;
19:26:28.629,0.72412,-0.03516,-0.68018;
19:26:28.639,0.74463,0.02222,-0.72217;
19:26:28.649,0.74023,-0.01123,-0.73486;
19:26:28.659,0.74780,-0.02368,-0.73755;
19:26:28.669,0.75195,-0.04517,-0.72363;
19:26:28.679,0.74121,-0.05005,-0.70654;
19:26:28.689,0.74072,-0.04712,-0.69507;
19:26:28.699,0.74561,-0.03735,-0.69751;
19:26:28.709,0.74731,-0.01294,-0.70728;
19:26:28.719,0.75366,0.00610,-0.70874;
19:26:28.729,0.75781,0.03345,-0.71411;
19:26:28.739,0.75488,0.00391,-0.71924;
19:26:28.749,0.74951,-0.03369,-0.70801;
19:26:28.759,0.74194,-0.03882,-0.69360;
19:26:28.769,0.73145,-0.04883,-0.69580;
19:26:28.779,0.73535,-0.03638,-0.71069;
19:26:28.789,0.73853,-0.02124,-0.72559;
19:26:28.799,0.74438,-0.00903,-0.74121;
19:26:28.809,0.74878,-0.01221,-0.74438;
19:26:28.819,0.74341,-0.02173,-0.73486;
19:26:28.829,0.74390,-0.02441,-0.72021;
19:26:28.839,0.73877,-0.01953,-0.70728;
19:26:28.849,0.73071,-0.02271,-0.71289;
19:26:28.859,0.73242,-0.02539,-0.72827;
19:26:28.869,0.73145,-0.01636,-0.74463;
19:26:28.879,0.72998,0.00073,-0.73120;
19:26:28.889,0.72510,0.01343,-0.68311;
19:26:28.899,0.70776,-0.01758,-0.61523;
19:26:28.909,0.75146,-0.10107,-0.58081;
19:26:28.919,0.75781,-0.09448,-0.67432;
19:26:28.929,0.75879,-0.02295,-0.78662;
19:26:28.939,0.77515,0.02515,-0.82568;
19:26:28.949,0.76001,0.04517,-0.80396;
19:26:28.959,0.76099,0.00049,-0.74634;
19:26:28.969,0.74609,-0.01807,-0.73169;
19:26:28.979,0.73779,0.01978,-0.71021;
19:26:28.989,0.72852,0.03442,-0.68823;
19:26:28.999,0.72705,0.02026,-0.67603;
19:26:29.009,0.72583,-0.02637,-0.67261;
19:26:29.019,0.72485,-0.03491,-0.69385;
19:26:29.029,0.73511,-0.03320,-0.72021;
19:26:29.039,0.73950,-0.04541,-0.73218;
19:26:29.049,0.73242,-0.04175,-0.73291;
19:26:29.059,0.72876,-0.03564,-0.72290;
19:26:29.069,0.73120,-0.02100,-0.71680;
19:26:29.079,0.72192,-0.00732,-0.70361;
19:26:29.089,0.71606,-0.02075,-0.68848;
19:26:29.099,0.71533,-0.03516,-0.70654;
19:26:29.109,0.71753,-0.05347,-0.72241;
19:26:29.119,0.71875,-0.05811,-0.73120;
19:26:29.129,0.72583,-0.05151,-0.74316;
19:26:29.139,0.73267,-0.04858,-0.73950;
19:26:29.149,0.73071,-0.04419,-0.73022;
19:26:29.159,0.72974,-0.04541,-0.71729;
19:26:29.169,0.73242,-0.04321,-0.70361;
19:26:29.179,0.73462,-0.02002,-0.69971;
19:26:29.189,0.72754,-0.00391,-0.70996;
19:26:29.199,0.73291,0.00220,-0.72949;
19:26:29.209,0.73877,0.00415,-0.74194;
19:26:29.219,0.73315,-0.00317,-0.74512;
19:26:29.229,0.72681,-0.00537,-0.73315;
19:26:29.239,0.72607,-0.01880,-0.70264;
19:26:29.249,0.72290,-0.02368,-0.68042;
19:26:29.259,0.71802,-0.02783,-0.68188;
19:26:29.269,0.71851,-0.03564,-0.69629;
19:26:29.279,0.71411,-0.02344,-0.70190;
19:26:29.289,0.71655,-0.00708,-0.70776;
19:26:29.299,0.74683,-0.01831,-0.76929;
19:26:29.309,0.74243,-0.00732,-0.75317;
19:26:29.319,0.74878,0.06958,-0.74731;
19:26:29.329,0.75220,0.03760,-0.73560;
19:26:29.339,0.74878,0.02100,-0.70679;
19:26:29.349,0.73633,-0.04077,-0.63794;
19:26:29.359,0.71240,-0.08203,-0.59692;
19:26:29.369,0.71362,-0.11572,-0.61572;
19:26:29.379,0.72607,-0.17847,-0.65161;
19:26:29.389,0.74121,-0.17871,-0.67871;
19:26:29.399,0.75952,-0.14868,-0.71411;
19:26:29.409,0.76440,-0.09204,-0.76074;
19:26:29.419,0.76978,-0.03198,-0.78149;
19:26:29.429,0.76025,-0.03418,-0.71021;
19:26:29.439,0.74951,-0.06641,-0.66187;
19:26:29.449,0.73779,-0.10352,-0.63916;
19:26:29.459,0.73926,-0.10596,-0.68286;
19:26:29.469,0.75342,-0.06836,-0.73999;
19:26:29.479,0.75635,-0.04565,-0.77637;
19:26:29.489,0.75366,-0.03979,-0.78442;
19:26:29.499,0.74585,-0.05591,-0.76270;
19:26:29.509,0.73730,-0.07446,-0.73364;
19:26:29.519,0.72339,-0.09106,-0.69824;
19:26:29.529,0.71265,-0.06641,-0.67700;
19:26:29.539,0.71143,-0.03076,-0.67847;
19:26:29.549,0.71167,-0.02051,-0.68750;
19:26:29.559,0.71240,-0.00317,-0.70093;
19:26:29.569,0.71826,0.01147,-0.72144;
19:26:29.579,0.72217,0.00171,-0.73193;
19:26:29.589,0.71655,0.01196,-0.73853;
19:26:29.599,0.72046,0.04419,-0.72437;
19:26:29.609,0.71143,0.05078,-0.69946;
19:26:29.619,0.70728,0.02515,-0.69946;
19:26:29.629,0.71558,-0.01025,-0.70947;
19:26:29.639,0.71265,-0.09766,-0.67822;
19:26:29.649,0.76245,-0.08838,-0.74902;
19:26:29.659,0.77637,-0.06543,-0.76416;
19:26:29.669,0.77661,-0.05029,-0.78613;
19:26:29.679,0.76807,-0.05688,-0.74878;
19:26:29.689,0.75854,-0.06006,-0.72729;
19:26:29.699,0.75391,-0.08130,-0.69092;
19:26:29.709,0.75122,-0.09497,-0.67603;
19:26:29.719,0.75293,-0.08325,-0.67480;
19:26:29.729,0.75439,-0.08594,-0.68286;
19:26:29.739,0.75586,-0.06152,-0.70288;
19:26:29.749,0.75366,-0.02832,-0.71484;
19:26:29.759,0.74023,-0.00781,-0.69727;
19:26:29.769,0.73120,-0.00708,-0.69067;
19:26:29.779,0.72974,-0.02344,-0.69482;
19:26:29.789,0.73242,-0.03882,-0.69751;
19:26:29.799,0.72778,-0.03247,-0.70483;
19:26:29.809,0.73071,-0.02173,-0.71729;
19:26:29.819,0.74536,-0.02856,-0.73535;
19:26:29.829,0.75220,-0.02441,-0.74292;
19:26:29.839,0.75146,-0.01099,-0.74097;
19:26:29.849,0.75244,-0.02808,-0.72363;
19:26:29.859,0.74561,-0.05347,-0.69897;
19:26:29.869,0.74463,-0.05127,-0.69849;
19:26:29.879,0.75195,-0.05542,-0.70947;
19:26:29.889,0.75244,-0.05469,-0.71680;
19:26:29.899,0.75146,-0.04688,-0.71997;
19:26:29.909,0.75244,-0.04590,-0.71362;
19:26:29.919,0.75073,-0.04492,-0.70972;
19:26:29.929,0.74414,-0.03857,-0.70264;
19:26:29.939,0.73828,-0.03638,-0.70703;
19:26:29.949,0.74292,-0.03662,-0.71216;
19:26:29.959,0.74756,-0.03516,-0.71558;
19:26:29.969,0.74365,-0.03687,-0.72290;
19:26:29.979,0.74585,-0.03247,-0.72217;
19:26:29.989,0.73706,-0.00562,-0.70703;
19:26:29.999,0.72583,-0.01904,-0.69824;
19:26:30.009,0.73096,-0.01782,-0.71606;
19:26:30.019,0.74097,-0.01709,-0.73389;
19:26:30.029,0.74194,-0.02319,-0.73291;
19:26:30.039,0.73853,-0.02124,-0.72705;
19:26:30.049,0.73242,-0.01489,-0.71729;
19:26:30.059,0.73022,-0.01538,-0.70483;
19:26:30.069,0.72705,-0.02344,-0.69092;
19:26:30.079,0.72900,-0.01440,-0.69702;
19:26:30.089,0.73657,-0.01001,-0.69653;
19:26:30.099,0.73706,-0.01611,-0.69458;
19:26:30.109,0.73657,-0.01855,-0.71338;
19:26:30.119,0.73926,-0.01465,-0.72607;
19:26:30.129,0.73804,-0.00879,-0.72900;
19:26:30.139,0.73950,-0.01123,-0.72437;
19:26:30.149,0.73999,-0.01343,-0.71753;
19:26:30.159,0.73706,-0.02319,-0.70654;
19:26:30.169,0.73779,-0.03345,-0.70874;
19:26:30.179,0.74292,-0.04346,-0.72241;
19:26:30.189,0.74780,-0.03638,-0.72876;
19:26:30.199,0.74487,-0.02002,-0.72388;
19:26:30.209,0.73682,-0.01660,-0.71509;
19:26:30.219,0.73511,-0.02271,-0.71826;
19:26:30.229,0.73242,-0.03174,-0.71509;
19:26:30.239,0.72925,-0.03149,-0.71191;
19:26:30.249,0.73608,-0.02734,-0.71582;
19:26:30.259,0.74438,-0.02002,-0.71997;
19:26:30.269,0.75122,-0.00903,-0.71362;
19:26:30.279,0.74780,-0.00610,-0.70483;
19:26:30.289,0.74512,-0.01221,-0.71118;
19:26:30.299,0.74561,-0.01221,-0.71729;
19:26:30.309,0.74365,-0.01294,-0.72217;
19:26:30.319,0.74316,-0.01733,-0.72046;
19:26:30.329,0.72876,-0.00879,-0.70093;
19:26:30.339,0.73462,-0.00928,-0.71411;
19:26:30.349,0.73999,-0.02002,-0.72583;
19:26:30.359,0.73804,-0.02100,-0.73071;
19:26:30.369,0.74243,-0.01514,-0.73169;
19:26:30.379,0.74854,-0.01758,-0.72510;
19:26:30.389,0.75000,-0.02759,-0.71606;
19:26:30.399,0.74976,-0.02026,-0.70581;
19:26:30.409,0.75269,-0.01489,-0.70166;
19:26:30.419,0.75293,-0.01807,-0.70752;
19:26:30.429,0.74878,-0.01685,-0.71753;
19:26:30.439,0.74512,-0.02100,-0.72534;
19:26:30.449,0.73682,-0.02222,-0.72168;
19:26:30.459,0.72949,-0.02002,-0.71191;
19:26:30.469,0.72681,-0.02002,-0.71143;
19:26:30.479,0.73340,-0.02075,-0.71777;
19:26:30.489,0.75000,-0.01807,-0.71338;
19:26:30.499,0.75098,-0.01660,-0.71436;
19:26:30.509,0.76001,-0.02954,-0.68359;
19:26:30.519,0.75244,-0.02026,-0.71777;
19:26:30.529,0.75366,-0.00928,-0.74219;
19:26:30.539,0.76001,-0.03101,-0.73926;
19:26:30.549,0.75342,-0.03760,-0.75317;
19:26:30.559,0.75000,-0.02637,-0.73730;
19:26:30.569,0.75269,0.02075,-0.70605;
19:26:30.579,0.74731,0.01318,-0.67798;
19:26:30.589,0.73535,-0.02954,-0.67871;
19:26:30.599,0.73999,-0.04053,-0.70825;
19:26:30.609,0.74341,-0.03101,-0.71851;
19:26:30.619,0.74097,-0.02759,-0.71631;
19:26:30.629,0.73706,-0.01782,-0.70996;
19:26:30.639,0.74219,-0.01489,-0.71069;
19:26:30.649,0.74609,-0.01538,-0.71313;
19:26:30.659,0.74316,-0.03320,-0.70654;
19:26:30.669,0.73975,-0.05103,-0.70508;
19:26:30.679,0.73950,-0.03687,-0.71948;
19:26:30.689,0.74585,-0.01611,-0.73389;
19:26:30.699,0.75073,-0.00244,-0.73901;
19:26:30.709,0.74805,-0.00952,-0.72974;
19:26:30.719,0.74243,-0.01563,-0.71411;
19:26:30.729,0.73828,-0.02344,-0.70068;
19:26:30.739,0.73169,-0.03882,-0.70483;
19:26:30.749,0.72656,-0.04224,-0.71802;
19:26:30.759,0.72900,-0.03662,-0.72119;
19:26:30.769,0.73169,-0.02173,-0.71436;
19:26:30.779,0.73853,0.00317,-0.72046;
19:26:30.789,0.74780,0.00635,-0.72998;
19:26:30.799,0.75024,0.00439,-0.71021;
19:26:30.809,0.74707,-0.00806,-0.68506;
19:26:30.819,0.75537,-0.06860,-0.62402;
19:26:30.829,0.72583,-0.05420,-0.64355;
19:26:30.839,0.73682,-0.04858,-0.70581;
19:26:30.849,0.76563,-0.03345,-0.75977;
19:26:30.859,0.75952,0.02222,-0.80981;
19:26:30.869,0.75977,0.01953,-0.77832;
19:26:30.879,0.74536,0.01050,-0.73682;
19:26:30.889,0.73901,-0.02246,-0.70020;
19:26:30.899,0.73486,-0.02393,-0.69067;
19:26:30.909,0.73926,-0.00171,-0.70142;
19:26:30.919,0.74561,0.01245,-0.71973;
19:26:30.929,0.74609,-0.02148,-0.70117;
19:26:30.939,0.72852,-0.04614,-0.69019;
19:26:30.949,0.73022,-0.03394,-0.70337;
19:26:30.959,0.73535,-0.02222,-0.71826;
19:26:30.969,0.73853,-0.01440,-0.72412;
19:26:30.979,0.73804,-0.01685,-0.72583;
19:26:30.989,0.73853,-0.03003,-0.72388;
19:26:30.999,0.73389,-0.03687,-0.71509;
19:26:31.009,0.72974,-0.03052,-0.71021;
19:26:31.019,0.73267,-0.03394,-0.70850;
19:26:31.029,0.73853,-0.02661,-0.70020;
19:26:31.039,0.74365,-0.02295,-0.69751;
19:26:31.049,0.74854,-0.01660,-0.70410;
19:26:31.059,0.75562,-0.02051,-0.71436;
19:26:31.069,0.75513,-0.04297,-0.71899;
19:26:31.079,0.74658,-0.07349,-0.69482;
19:26:31.089,0.73901,-0.09082,-0.68140;
19:26:31.099,0.76025,-0.06714,-0.70264;
19:26:31.109,0.76709,-0.01245,-0.77002;
19:26:31.119,0.76709,0.02881,-0.78564;
19:26:31.129,0.75806,0.02148,-0.74683;
19:26:31.139,0.74243,-0.02734,-0.70459;
19:26:31.149,0.74170,-0.07568,-0.67480;
19:26:31.159,0.74243,-0.06665,-0.70166;
19:26:31.169,0.75269,-0.00562,-0.73682;
19:26:31.179,0.75806,0.03809,-0.77100;
19:26:31.189,0.75854,0.03540,-0.76221;
19:26:31.199,0.74072,-0.00244,-0.72705;
19:26:31.209,0.71997,-0.04077,-0.68115;
19:26:31.219,0.71753,-0.05786,-0.63452;
19:26:31.229,0.71094,-0.07886,-0.61060;
19:26:31.239,0.70898,-0.07373,-0.62061;
19:26:31.249,0.71680,-0.02686,-0.66235;
19:26:31.259,0.71924,0.01465,-0.74683;
19:26:31.269,0.73315,0.11255,-0.78247;
19:26:31.279,0.72144,0.04785,-0.73389;
19:26:31.289,0.72266,0.01367,-0.71606;
19:26:31.299,0.72510,-0.01611,-0.71069;
19:26:31.309,0.72876,-0.02734,-0.71631;
19:26:31.319,0.72290,-0.02856,-0.71509;
19:26:31.329,0.72925,-0.03125,-0.71094;
19:26:31.339,0.72852,-0.02490,-0.69116;
19:26:31.349,0.71997,-0.03052,-0.67725;
19:26:31.359,0.72388,-0.03418,-0.69312;
19:26:31.369,0.73608,-0.03589,-0.71997;
19:26:31.379,0.73608,-0.04663,-0.73438;
19:26:31.389,0.72852,-0.05615,-0.71460;
19:26:31.399,0.72900,-0.06372,-0.65112;
19:26:31.409,0.75366,-0.07031,-0.70361;
19:26:31.419,0.76953,-0.00439,-0.76782;
19:26:31.429,0.77319,0.01367,-0.79980;
19:26:31.439,0.77100,0.00659,-0.82739;
19:26:31.449,0.76001,0.02466,-0.77490;
19:26:31.459,0.74097,-0.01147,-0.72144;
19:26:31.469,0.72217,-0.01904,-0.67383;
19:26:31.479,0.71851,-0.01196,-0.65381;
19:26:31.489,0.71094,-0.00244,-0.64233;
19:26:31.499,0.71509,0.00732,-0.66821;
19:26:31.509,0.72705,0.01514,-0.69727;
19:26:31.519,0.73340,0.01538,-0.70776;
19:26:31.529,0.73462,-0.00537,-0.71606;
19:26:31.539,0.74048,-0.03931,-0.71582;
19:26:31.549,0.74780,-0.05200,-0.71655;
19:26:31.559,0.75635,-0.05737,-0.71826;
19:26:31.569,0.75928,-0.03442,-0.72070;
19:26:31.579,0.75879,0.01782,-0.72388;
19:26:31.589,0.75317,-0.02832,-0.70190;
19:26:31.599,0.73096,-0.04639,-0.68311;
19:26:31.609,0.74121,-0.05762,-0.70288;
19:26:31.619,0.74609,-0.05566,-0.71924;
19:26:31.629,0.74658,-0.04199,-0.72534;
19:26:31.639,0.75391,-0.03174,-0.74072;
19:26:31.649,0.75781,-0.01660,-0.75122;
19:26:31.659,0.75195,-0.01978,-0.73438;
19:26:31.669,0.73657,-0.01611,-0.70410;
19:26:31.679,0.72876,-0.00122,-0.69531;
19:26:31.689,0.73438,-0.01733,-0.70288;
19:26:31.699,0.73755,-0.02783,-0.72388;
19:26:31.709,0.73657,-0.02612,-0.73218;
19:26:31.719,0.74146,-0.01147,-0.72095;
19:26:31.729,0.73975,-0.00708,-0.69971;
19:26:31.739,0.74390,-0.05225,-0.63989;
19:26:31.749,0.72046,-0.04126,-0.64185;
19:26:31.759,0.73706,-0.03589,-0.70215;
19:26:31.769,0.76123,-0.02173,-0.75122;
19:26:31.779,0.76050,0.00928,-0.80176;
19:26:31.789,0.77075,0.01538,-0.79932;
19:26:31.799,0.75024,0.02075,-0.75195;
19:26:31.809,0.73975,0.01855,-0.69897;
19:26:31.819,0.73535,0.01221,-0.67139;
19:26:31.829,0.73438,-0.00195,-0.66797;
19:26:31.839,0.73120,-0.00146,-0.67065;
19:26:31.849,0.73022,-0.00732,-0.68091;
19:26:31.859,0.73462,-0.01172,-0.69800;
19:26:31.869,0.73779,-0.01343,-0.71460;
19:26:31.879,0.73804,-0.01782,-0.70947;
19:26:31.889,0.72729,-0.03931,-0.69067;
19:26:31.899,0.72607,-0.05103,-0.69458;
19:26:31.909,0.73828,-0.05322,-0.72363;
19:26:31.919,0.74561,-0.05762,-0.78174;
19:26:31.929,0.75928,-0.01099,-0.75269;
19:26:31.939,0.74121,-0.00366,-0.67822;
19:26:31.949,0.72632,-0.01025,-0.65796;
19:26:31.959,0.71973,-0.02344,-0.64966;
19:26:31.969,0.71948,-0.04785,-0.63330;
19:26:31.979,0.74731,-0.10059,-0.63379;
19:26:31.989,0.75146,-0.06128,-0.72778;
19:26:31.999,0.76538,0.01318,-0.79028;
19:26:32.009,0.76563,0.02979,-0.78003;
19:26:32.019,0.73633,0.03931,-0.76025;
19:26:32.029,0.74316,-0.00610,-0.72217;
19:26:32.039,0.73779,-0.03198,-0.71021;
19:26:32.049,0.74146,-0.02197,-0.71069;
19:26:32.059,0.74902,-0.01367,-0.72217;
19:26:32.069,0.74878,-0.01563,-0.72339;
19:26:32.079,0.73926,-0.01978,-0.71143;
19:26:32.089,0.73389,-0.01978,-0.69556;
19:26:32.099,0.73315,-0.01758,-0.68579;
19:26:32.109,0.73193,-0.03149,-0.68726;
19:26:32.119,0.72900,-0.02881,-0.69775;
19:26:32.129,0.72998,-0.02271,-0.71167;
19:26:32.139,0.73975,-0.01587,-0.72290;
19:26:32.149,0.74536,-0.00464,-0.72705;
19:26:32.159,0.74146,0.00439,-0.72974;
19:26:32.169,0.73657,-0.02002,-0.71777;
19:26:32.179,0.73071,-0.04761,-0.70801;
19:26:32.189,0.73926,-0.04810,-0.71436;
19:26:32.199,0.74731,-0.03247,-0.72339;
19:26:32.209,0.74976,-0.01831,-0.73511;
19:26:32.219,0.75342,-0.03882,-0.73755;
19:26:32.229,0.75391,-0.04541,-0.73926;
19:26:32.239,0.75586,-0.04199,-0.74243;
19:26:32.249,0.76343,-0.04614,-0.74146;
19:26:32.259,0.76074,-0.05884,-0.73438;
19:26:32.269,0.75708,-0.04980,-0.74316;
19:26:32.279,0.76050,-0.08398,-0.77051;
19:26:32.289,0.76929,-0.14526,-0.79980;
19:26:32.299,0.77319,-0.16016,-0.81152;
19:26:32.309,0.77393,-0.14844,-0.80371;
19:26:32.319,0.77368,-0.14819,-0.78589;
19:26:32.329,0.77051,-0.17554,-0.78662;
19:26:32.339,0.77295,-0.21899,-0.81836;
19:26:32.349,0.77441,-0.21460,-0.85254;
19:26:32.359,0.77954,-0.15137,-0.87183;
19:26:32.369,0.78467,-0.05469,-0.87646;
19:26:32.379,0.78589,0.07251,-0.85425;
19:26:32.389,0.76196,0.15527,-0.82593;
19:26:32.399,0.72534,0.16577,-0.84229;
19:26:32.409,0.70605,0.17578,-0.87817;
19:26:32.419,0.69043,0.19629,-0.90063;
19:26:32.429,0.70435,0.23145,-0.88623;
19:26:32.439,0.73389,0.28003,-0.85645;
19:26:32.449,0.73755,0.31714,-0.83301;
19:26:32.459,0.74365,0.36328,-0.79517;
19:26:32.469,0.71045,0.34863,-0.70825;
19:26:32.479,0.64868,0.32227,-0.63428;
19:26:32.489,0.60254,0.35571,-0.61450;
19:26:32.499,0.55859,0.40503,-0.61426;
19:26:32.509,0.55347,0.47607,-0.61719;
19:26:32.519,0.56201,0.51904,-0.62671;
19:26:32.529,0.58032,0.52026,-0.61279;
19:26:32.539,0.58008,0.51416,-0.55933;
19:26:32.549,0.57251,0.52295,-0.51245;
19:26:32.559,0.57300,0.51831,-0.49316;
19:26:32.569,0.58960,0.51123,-0.48145;
19:26:32.579,0.61792,0.48706,-0.42310;
19:26:32.589,0.60522,0.50024,-0.40552;
19:26:32.599,0.60693,0.54565,-0.45508;
19:26:32.609,0.62500,0.56519,-0.49756;
19:26:32.619,0.56250,0.49170,-0.47974;
19:26:32.629,0.53418,0.49146,-0.49829;
19:26:32.639,0.52393,0.50732,-0.52954;
19:26:32.649,0.51953,0.50415,-0.56104;
19:26:32.659,0.52246,0.53906,-0.59326;
19:26:32.669,0.56445,0.58472,-0.66040;
19:26:32.679,0.61011,0.60132,-0.72559;
19:26:32.689,0.60718,0.58569,-0.74878;
19:26:32.699,0.59277,0.55103,-0.74829;
19:26:32.709,0.57813,0.53662,-0.72461;
19:26:32.719,0.55859,0.58398,-0.75391;
19:26:32.729,0.57593,0.62964,-0.79834;
19:26:32.739,0.57739,0.56372,-0.77759;
19:26:32.749,0.56934,0.44263,-0.71729;
19:26:32.759,0.57251,0.34912,-0.68652;
19:26:32.769,0.57690,0.26685,-0.65845;
19:26:32.779,0.56689,0.22900,-0.62817;
19:26:32.789,0.53760,0.21948,-0.60718;
19:26:32.799,0.52148,0.29224,-0.65552;
19:26:32.809,0.53271,0.34961,-0.70361;
19:26:32.819,0.53760,0.32544,-0.69263;
19:26:32.829,0.52417,0.30786,-0.65552;
19:26:32.839,0.54150,0.30127,-0.61108;
19:26:32.849,0.57397,0.29736,-0.57788;
19:26:32.859,0.60474,0.28955,-0.55859;
19:26:32.869,0.61011,0.30859,-0.52466;
19:26:32.879,0.59204,0.36841,-0.50439;
19:26:32.889,0.58423,0.45093,-0.51440;
19:26:32.899,0.58643,0.49365,-0.55420;
19:26:32.909,0.60547,0.50708,-0.65186;
19:26:32.919,0.64038,0.54370,-0.70044;
19:26:32.929,0.64404,0.46118,-0.65649;
19:26:32.939,0.69775,0.54175,-0.79663;
19:26:32.949,0.70435,0.66455,-0.81714;
19:26:32.959,0.66406,0.73730,-0.82544;
19:26:32.969,0.65088,0.71606,-0.81445;
19:26:32.979,0.65430,0.67529,-0.78662;
19:26:32.989,0.66309,0.64282,-0.76929;
19:26:32.999,0.66431,0.56714,-0.75122;
19:26:33.009,0.66504,0.46924,-0.74683;
19:26:33.019,0.67944,0.38721,-0.74072;
19:26:33.029,0.68530,0.29614,-0.71240;
19:26:33.039,0.67798,0.29541,-0.65088;
19:26:33.049,0.66577,0.37524,-0.57397;
19:26:33.059,0.65405,0.41211,-0.55005;
19:26:33.069,0.64209,0.39868,-0.56177;
19:26:33.079,0.64941,0.35718,-0.57056;
19:26:33.089,0.68433,0.38208,-0.61206;
19:26:33.099,0.73145,0.43457,-0.65063;
19:26:33.109,0.73657,0.40405,-0.64478;
19:26:33.119,0.74634,0.36816,-0.61938;
19:26:33.129,0.76050,0.32642,-0.59399;
19:26:33.139,0.74365,0.26904,-0.61157;
19:26:33.149,0.72925,0.24268,-0.66553;
19:26:33.159,0.72290,0.24048,-0.71265;
19:26:33.169,0.72314,0.30151,-0.73096;
19:26:33.179,0.71582,0.38867,-0.72681;
19:26:33.189,0.71704,0.42944,-0.70142;
19:26:33.199,0.71216,0.34399,-0.67480;
19:26:33.209,0.69531,0.25122,-0.66772;
19:26:33.219,0.68701,0.23267,-0.67676;
19:26:33.229,0.67969,0.25317,-0.70386;
19:26:33.239,0.69019,0.31885,-0.73047;
19:26:33.249,0.69360,0.38208,-0.70386;
19:26:33.259,0.65137,0.30176,-0.69189;
19:26:33.269,0.67065,0.26904,-0.73047;
19:26:33.279,0.68945,0.27490,-0.72168;
19:26:33.289,0.69727,0.29736,-0.70679;
19:26:33.299,0.68774,0.30640,-0.68628;
19:26:33.309,0.66626,0.29175,-0.65918;
19:26:33.319,0.65967,0.30542,-0.66772;
19:26:33.329,0.66333,0.31128,-0.68188;
19:26:33.339,0.67725,0.28442,-0.66626;
19:26:33.349,0.69385,0.27588,-0.66479;
19:26:33.359,0.69873,0.28564,-0.68555;
19:26:33.369,0.69653,0.30371,-0.68018;
19:26:33.379,0.67358,0.31494,-0.64844;
19:26:33.389,0.65527,0.35059,-0.62988;
19:26:33.399,0.65698,0.38037,-0.62988;
19:26:33.409,0.66504,0.35254,-0.62158;
19:26:33.419,0.66577,0.29688,-0.60571;
19:26:33.429,0.66797,0.27319,-0.61743;
19:26:33.439,0.68799,0.29150,-0.64478;
19:26:33.449,0.70654,0.32031,-0.67090;
19:26:33.459,0.71143,0.33423,-0.67578;
19:26:33.469,0.70850,0.33081,-0.67236;
19:26:33.479,0.69727,0.30981,-0.65942;
19:26:33.489,0.68921,0.30078,-0.64233;
19:26:33.499,0.69067,0.32153,-0.65527;
19:26:33.509,0.69849,0.32983,-0.66528;
19:26:33.519,0.70044,0.32349,-0.67578;
19:26:33.529,0.70459,0.33252,-0.69995;
19:26:33.539,0.70825,0.32446,-0.70239;
19:26:33.549,0.71069,0.29858,-0.68799;
19:26:33.559,0.71802,0.27344,-0.67822;
19:26:33.569,0.73193,0.27100,-0.67334;
19:26:33.579,0.74438,0.28223,-0.66479;
19:26:33.589,0.75391,0.27588,-0.71289;
19:26:33.599,0.75464,0.22705,-0.65308;
19:26:33.609,0.74902,0.21558,-0.64331;
19:26:33.619,0.75928,0.23730,-0.63599;
19:26:33.629,0.76001,0.26880,-0.63721;
19:26:33.639,0.76050,0.28491,-0.65479;
19:26:33.649,0.76196,0.28101,-0.68311;
19:26:33.659,0.75098,0.27197,-0.67773;
19:26:33.669,0.73682,0.23950,-0.65918;
19:26:33.679,0.72437,0.23755,-0.66040;
19:26:33.689,0.72021,0.26025,-0.66357;
19:26:33.699,0.72290,0.27832,-0.66406;
19:26:33.709,0.72583,0.28027,-0.65430;
19:26:33.719,0.73560,0.27612,-0.65869;
19:26:33.729,0.74121,0.27222,-0.66504;
19:26:33.739,0.74536,0.28589,-0.67188;
19:26:33.749,0.75488,0.30103,-0.68604;
19:26:33.759,0.76123,0.28711,-0.68872;
19:26:33.769,0.76831,0.26758,-0.68018;
19:26:33.779,0.76758,0.24438,-0.66455;
19:26:33.789,0.75928,0.24121,-0.66309;
19:26:33.799,0.75854,0.25977,-0.68311;
19:26:33.809,0.75635,0.27051,-0.69775;
19:26:33.819,0.75635,0.27490,-0.67310;
19:26:33.829,0.76172,0.28345,-0.63403;
19:26:33.839,0.76685,0.30884,-0.61670;
19:26:33.849,0.77124,0.31567,-0.61548;
19:26:33.859,0.76367,0.27979,-0.61304;
19:26:33.869,0.75684,0.26025,-0.62329;
19:26:33.879,0.75757,0.26147,-0.65015;
19:26:33.889,0.75391,0.24976,-0.66138;
19:26:33.899,0.75488,0.24707,-0.66919;
19:26:33.909,0.75659,0.26489,-0.65308;
19:26:33.919,0.75952,0.30249,-0.59790;
19:26:33.929,0.74829,0.30347,-0.59521;
19:26:33.939,0.75757,0.28638,-0.66479;
19:26:33.949,0.76440,0.27759,-0.69067;
19:26:33.959,0.76831,0.28711,-0.68018;
19:26:33.969,0.76440,0.28027,-0.65015;
19:26:33.979,0.75562,0.27148,-0.62671;
19:26:33.989,0.74902,0.27515,-0.62720;
19:26:33.999,0.75073,0.28833,-0.64893;
19:26:34.009,0.75635,0.33228,-0.67749;
19:26:34.019,0.75732,0.32910,-0.68213;
19:26:34.029,0.75781,0.29785,-0.67407;
19:26:34.039,0.76318,0.30713,-0.65771;
19:26:34.049,0.75537,0.28345,-0.62549;
19:26:34.059,0.73315,0.29492,-0.61377;
19:26:34.069,0.72241,0.32397,-0.61938;
19:26:34.079,0.71704,0.30713,-0.63037;
19:26:34.089,0.72241,0.32446,-0.63208;
19:26:34.099,0.72632,0.33179,-0.62305;
19:26:34.109,0.72656,0.31860,-0.61108;
19:26:34.119,0.72998,0.28345,-0.59253;
19:26:34.129,0.72681,0.27148,-0.59668;
19:26:34.139,0.72778,0.28442,-0.62524;
19:26:34.149,0.73535,0.27637,-0.65454;
19:26:34.159,0.75537,0.27954,-0.67358;
19:26:34.169,0.75928,0.29419,-0.66382;
19:26:34.179,0.76050,0.30005,-0.64453;
19:26:34.189,0.76563,0.30273,-0.63354;
19:26:34.199,0.76001,0.30518,-0.61865;
19:26:34.209,0.74854,0.28271,-0.60913;
19:26:34.219,0.75000,0.28027,-0.62695;
19:26:34.229,0.75708,0.29639,-0.65088;
19:26:34.239,0.75830,0.30347,-0.66577;
19:26:34.249,0.76172,0.29346,-0.65918;
19:26:34.259,0.75879,0.28760,-0.62451;
19:26:34.269,0.74487,0.27368,-0.65015;
19:26:34.279,0.75269,0.26611,-0.68237;
19:26:34.289,0.75122,0.26514,-0.66919;
19:26:34.299,0.75513,0.26392,-0.65430;
19:26:34.309,0.75024,0.25488,-0.63599;
19:26:34.319,0.73682,0.24170,-0.63037;
19:26:34.329,0.73682,0.25317,-0.64331;
19:26:34.339,0.75000,0.28442,-0.65015;
19:26:34.349,0.75171,0.30054,-0.64746;
19:26:34.359,0.75122,0.30737,-0.64673;
19:26:34.369,0.75366,0.29883,-0.64160;
19:26:34.379,0.75220,0.29150,-0.63159;
19:26:34.389,0.74731,0.28638,-0.62378;
19:26:34.399,0.73901,0.27515,-0.62817;
19:26:34.409,0.73608,0.26929,-0.64014;
19:26:34.419,0.73755,0.27490,-0.64746;
19:26:34.429,0.73877,0.28735,-0.64722;
19:26:34.439,0.74243,0.30322,-0.65625;
19:26:34.449,0.74902,0.28760,-0.64966;
19:26:34.459,0.75317,0.27319,-0.62915;
19:26:34.469,0.75391,0.26685,-0.62329;
19:26:34.479,0.74854,0.26758,-0.62988;
19:26:34.489,0.74927,0.27783,-0.65527;
19:26:34.499,0.75391,0.29150,-0.67529;
19:26:34.509,0.75903,0.28979,-0.68188;
19:26:34.519,0.76514,0.27612,-0.67822;
19:26:34.529,0.76123,0.25928,-0.66064;
19:26:34.539,0.75537,0.25708,-0.65039;
19:26:34.549,0.75244,0.26465,-0.65601;
19:26:34.559,0.75000,0.27344,-0.65845;
19:26:34.569,0.74805,0.28345,-0.65771;
19:26:34.579,0.74561,0.28589,-0.64355;
19:26:34.589,0.74292,0.31641,-0.62622;
19:26:34.599,0.74243,0.27100,-0.60303;
19:26:34.609,0.74658,0.26733,-0.63452;
19:26:34.619,0.74854,0.27490,-0.64453;
19:26:34.629,0.74268,0.26807,-0.66895;
19:26:34.639,0.75366,0.23413,-0.68115;
19:26:34.649,0.76270,0.23511,-0.67847;
19:26:34.659,0.76538,0.26147,-0.68140;
19:26:34.669,0.76440,0.28687,-0.68018;
19:26:34.679,0.75732,0.28882,-0.66040;
19:26:34.689,0.74194,0.27515,-0.63428;
19:26:34.699,0.72168,0.27466,-0.62012;
19:26:34.709,0.71704,0.29004,-0.62573;
19:26:34.719,0.72998,0.30200,-0.64795;
19:26:34.729,0.73633,0.29834,-0.65112;
19:26:34.739,0.73682,0.28931,-0.64819;
19:26:34.749,0.73120,0.28491,-0.63403;
19:26:34.759,0.71924,0.29126,-0.62207;
19:26:34.769,0.71558,0.30127,-0.62939;
19:26:34.779,0.72339,0.29688,-0.64355;
19:26:34.789,0.72754,0.30005,-0.65259;
19:26:34.799,0.73193,0.30713,-0.65649;
19:26:34.809,0.73364,0.29321,-0.66089;
19:26:34.819,0.73291,0.27246,-0.65820;
19:26:34.829,0.72974,0.25732,-0.65601;
19:26:34.839,0.72485,0.27051,-0.64624;
19:26:34.849,0.72534,0.29492,-0.64404;
19:26:34.859,0.74194,0.27783,-0.66992;
19:26:34.869,0.74512,0.27856,-0.65967;
19:26:34.879,0.74170,0.27368,-0.64307;
19:26:34.889,0.73828,0.26636,-0.63184;
19:26:34.899,0.73975,0.27612,-0.63843;
19:26:34.909,0.74585,0.28882,-0.65479;
19:26:34.919,0.75220,0.29858,-0.66333;
19:26:34.929,0.75317,0.31104,-0.67139;
19:26:34.939,0.74902,0.30933,-0.67627;
19:26:34.949,0.74146,0.28491,-0.66211;
19:26:34.959,0.73242,0.27271,-0.64844;
19:26:34.969,0.71924,0.26880,-0.64185;
19:26:34.979,0.71387,0.26733,-0.64868;
19:26:34.989,0.72314,0.28198,-0.66650;
19:26:34.999,0.73193,0.29102,-0.66333;
19:26:35.009,0.73145,0.30151,-0.65747;
19:26:35.019,0.73438,0.31128,-0.65674;
19:26:35.029,0.73657,0.28687,-0.64648;
19:26:35.039,0.73315,0.26685,-0.64941;
19:26:35.049,0.73047,0.27100,-0.65771;
19:26:35.059,0.72461,0.27661,-0.66650;
19:26:35.069,0.72437,0.27979,-0.67041;
19:26:35.079,0.72363,0.27417,-0.66479;
19:26:35.089,0.72363,0.28052,-0.65918;
19:26:35.099,0.72632,0.31104,-0.65210;
19:26:35.109,0.72266,0.30957,-0.63135;
19:26:35.119,0.72119,0.29810,-0.61865;
19:26:35.129,0.72314,0.30347,-0.63550;
19:26:35.139,0.72437,0.29468,-0.64551;
19:26:35.149,0.73315,0.29468,-0.64600;
19:26:35.159,0.73706,0.29395,-0.65161;
19:26:35.169,0.73389,0.28101,-0.66016;
19:26:35.179,0.73413,0.27783,-0.65405;
19:26:35.189,0.75708,0.29346,-0.64941;
19:26:35.199,0.75439,0.26099,-0.65479;
19:26:35.209,0.75488,0.25659,-0.67139;
19:26:35.219,0.75122,0.24268,-0.68628;
19:26:35.229,0.74927,0.21484,-0.68628;
19:26:35.239,0.74170,0.22412,-0.66772;
19:26:35.249,0.73584,0.26758,-0.65967;
19:26:35.259,0.73584,0.28906,-0.65186;
19:26:35.269,0.73022,0.28906,-0.65015;
19:26:35.279,0.72314,0.28760,-0.65796;
19:26:35.289,0.72510,0.28149,-0.66919;
19:26:35.299,0.73755,0.24561,-0.67261;
19:26:35.309,0.74341,0.22314,-0.66968;
19:26:35.319,0.73706,0.21240,-0.65308;
19:26:35.329,0.72266,0.25024,-0.64844;
19:26:35.339,0.71606,0.32080,-0.65771;
19:26:35.349,0.71948,0.36914,-0.66797;
19:26:35.359,0.72485,0.37549,-0.68066;
19:26:35.369,0.72852,0.32007,-0.66187;
19:26:35.379,0.71631,0.23682,-0.62207;
19:26:35.389,0.72192,0.17749,-0.60303;
19:26:35.399,0.72412,0.16260,-0.62598;
19:26:35.409,0.72217,0.18384,-0.66504;
19:26:35.419,0.73901,0.22607,-0.70361;
19:26:35.429,0.75073,0.25488,-0.72168;
19:26:35.439,0.75269,0.26440,-0.71143;
19:26:35.449,0.75024,0.23853,-0.68530;
19:26:35.459,0.74683,0.20728,-0.65649;
19:26:35.469,0.74219,0.17188,-0.63989;
19:26:35.479,0.74048,0.16846,-0.65063;
19:26:35.489,0.74341,0.18848,-0.67407;
19:26:35.499,0.75269,0.19238,-0.69531;
19:26:35.509,0.76025,0.20288,-0.71265;
19:26:35.519,0.76685,0.20410,-0.68457;
19:26:35.529,0.74292,0.19995,-0.67041;
19:26:35.539,0.74194,0.20093,-0.69434;
19:26:35.549,0.75537,0.19824,-0.70703;
19:26:35.559,0.75513,0.18018,-0.69360;
19:26:35.569,0.75122,0.17822,-0.67188;
19:26:35.579,0.75293,0.17529,-0.65723;
19:26:35.589,0.74951,0.18579,-0.65234;
19:26:35.599,0.75903,0.20654,-0.65039;
19:26:35.609,0.76636,0.19922,-0.66113;
19:26:35.619,0.77466,0.20874,-0.68799;
19:26:35.629,0.77759,0.20264,-0.69141;
19:26:35.639,0.77222,0.17676,-0.68628;
19:26:35.649,0.76978,0.17212,-0.67896;
19:26:35.659,0.76855,0.18994,-0.67749;
19:26:35.669,0.76270,0.17578,-0.67017;
19:26:35.679,0.75977,0.15649,-0.66138;
19:26:35.689,0.76221,0.16846,-0.67896;
19:26:35.699,0.76050,0.19385,-0.69434;
19:26:35.709,0.75415,0.21411,-0.70020;
19:26:35.719,0.74463,0.21680,-0.71265;
19:26:35.729,0.73999,0.20996,-0.71753;
19:26:35.739,0.73462,0.18335,-0.69116;
19:26:35.749,0.73169,0.16602,-0.66602;
19:26:35.759,0.73071,0.17285,-0.65576;
19:26:35.769,0.73413,0.18555,-0.65454;
19:26:35.779,0.74194,0.21094,-0.66479;
19:26:35.789,0.75000,0.22339,-0.68262;
19:26:35.799,0.75659,0.22363,-0.69116;
19:26:35.809,0.75708,0.21533,-0.68066;
19:26:35.819,0.74609,0.18604,-0.65308;
19:26:35.829,0.73438,0.20117,-0.64282;
19:26:35.839,0.72534,0.22290,-0.66187;
19:26:35.849,0.73926,0.23218,-0.70825;
19:26:35.859,0.75171,0.20483,-0.69360;
19:26:35.869,0.74170,0.20313,-0.67114;
19:26:35.879,0.72095,0.21680,-0.66724;
19:26:35.889,0.71313,0.22070,-0.67358;
19:26:35.899,0.71924,0.23267,-0.67969;
19:26:35.909,0.71802,0.26123,-0.68237;
19:26:35.919,0.71558,0.24854,-0.68311;
19:26:35.929,0.71875,0.21387,-0.67847;
19:26:35.939,0.71851,0.21704,-0.66675;
19:26:35.949,0.71704,0.24219,-0.65942;
19:26:35.959,0.71729,0.24536,-0.65332;
19:26:35.969,0.71704,0.22974,-0.64771;
19:26:35.979,0.72192,0.24048,-0.65039;
19:26:35.989,0.72046,0.25562,-0.65796;
19:26:35.999,0.72217,0.26855,-0.65723;
19:26:36.009,0.72388,0.27637,-0.66187;
19:26:36.019,0.72729,0.27222,-0.66675;
19:26:36.029,0.73389,0.25952,-0.66382;
19:26:36.039,0.73438,0.24976,-0.65430;
19:26:36.049,0.73608,0.26294,-0.64941;
19:26:36.059,0.73364,0.27124,-0.65820;
19:26:36.069,0.72607,0.26465,-0.66113;
19:26:36.079,0.71899,0.26001,-0.66382;
19:26:36.089,0.72461,0.27173,-0.67651;
19:26:36.099,0.73511,0.27637,-0.68481;
19:26:36.109,0.74438,0.26050,-0.66919;
19:26:36.119,0.75000,0.24463,-0.65698;
19:26:36.129,0.75244,0.24243,-0.65747;
19:26:36.139,0.75635,0.24292,-0.66455;
19:26:36.149,0.75659,0.24561,-0.65015;
19:26:36.159,0.76050,0.29419,-0.62109;
19:26:36.169,0.76221,0.34058,-0.62549;
19:26:36.179,0.76270,0.30176,-0.63770;
19:26:36.189,0.75903,0.25317,-0.63477;
19:26:36.199,0.76001,0.20532,-0.63599;
19:26:36.209,0.76147,0.19385,-0.63989;
19:26:36.219,0.76099,0.19214,-0.64673;
19:26:36.229,0.76685,0.19727,-0.65576;
19:26:36.239,0.77222,0.22168,-0.66919;
19:26:36.249,0.77344,0.26904,-0.66943;
19:26:36.259,0.78052,0.31396,-0.66992;
19:26:36.269,0.77856,0.30444,-0.65625;
19:26:36.279,0.77490,0.27637,-0.62988;
19:26:36.289,0.76685,0.21167,-0.61865;
19:26:36.299,0.76245,0.20068,-0.63208;
19:26:36.309,0.76880,0.26563,-0.65112;
19:26:36.319,0.76733,0.30103,-0.65479;
19:26:36.329,0.77124,0.33447,-0.65112;
19:26:36.339,0.77148,0.34302,-0.63574;
19:26:36.349,0.75757,0.30029,-0.60962;
19:26:36.359,0.74194,0.27832,-0.59180;
19:26:36.369,0.73096,0.26196,-0.59766;
19:26:36.379,0.72534,0.23926,-0.60205;
19:26:36.389,0.72168,0.25977,-0.60645;
19:26:36.399,0.73413,0.26392,-0.62524;
19:26:36.409,0.71875,0.27173,-0.60400;
19:26:36.419,0.70068,0.30884,-0.59644;
19:26:36.429,0.69019,0.30347,-0.59253;
19:26:36.439,0.67407,0.25464,-0.58740;
19:26:36.449,0.69067,0.20410,-0.63257;
19:26:36.459,0.72510,0.16162,-0.67725;
19:26:36.469,0.75269,0.16919,-0.67725;
19:26:36.479,0.78223,0.24268,-0.63354;
19:26:36.489,0.79858,0.17627,-0.63525;
19:26:36.499,0.80737,0.19702,-0.64453;
19:26:36.509,0.80713,0.21973,-0.65527;
19:26:36.519,0.81079,0.22705,-0.63428;
19:26:36.529,0.82397,0.20288,-0.60400;
19:26:36.539,0.79102,0.18579,-0.59009;
19:26:36.549,0.79272,0.16992,-0.58301;
19:26:36.559,0.78857,0.19287,-0.59644;
19:26:36.569,0.77686,0.21118,-0.62793;
19:26:36.579,0.78687,0.15503,-0.62671;
19:26:36.589,0.77954,0.14063,-0.61621;
19:26:36.599,0.75562,0.13403,-0.61841;
19:26:36.609,0.76025,0.11719,-0.61694;
19:26:36.619,0.77930,0.09839,-0.62939;
19:26:36.629,0.75122,0.06641,-0.63501;
19:26:36.639,0.78882,0.07397,-0.62842;
19:26:36.649,0.79419,0.11060,-0.65088;
19:26:36.659,0.78979,0.14258,-0.62646;
19:26:36.669,0.81177,0.12598,-0.60596;
19:26:36.679,0.80713,0.07935,-0.62231;
19:26:36.689,0.81836,0.05957,-0.60889;
19:26:36.699,0.83081,0.07666,-0.60693;
19:26:36.709,0.83545,0.11890,-0.61133;
19:26:36.719,0.81201,0.10767,-0.60107;
19:26:36.729,0.83203,0.12305,-0.60693;
19:26:36.739,0.83154,0.14575,-0.62695;
19:26:36.749,0.82788,0.12329,-0.63550;
19:26:36.759,0.83154,0.12720,-0.65161;
19:26:36.769,0.84888,0.14844,-0.66284;
19:26:36.779,0.82983,0.09790,-0.63794;
19:26:36.789,0.81250,0.12646,-0.64990;
19:26:36.799,0.83960,0.12451,-0.63989;
19:26:36.809,0.83887,0.16528,-0.63623;
19:26:36.819,0.81641,0.16919,-0.61865;
19:26:36.829,0.82153,0.13940,-0.59229;
19:26:36.839,0.82227,0.15723,-0.58325;
19:26:36.849,0.77515,0.18286,-0.58740;
19:26:36.859,0.82886,0.19214,-0.60034;
19:26:36.869,0.81860,0.23218,-0.61768;
19:26:36.879,0.81592,0.20190,-0.59937;
19:26:36.889,0.83960,0.15332,-0.57813;
19:26:36.899,0.82568,0.14746,-0.58228;
19:26:36.909,0.88184,0.13989,-0.59961;
19:26:36.919,0.85962,0.14844,-0.61646;
19:26:36.929,0.86963,0.15234,-0.62891;
19:26:36.939,0.89307,0.15723,-0.60498;
19:26:36.949,0.87866,0.19678,-0.58105;
19:26:36.959,0.88184,0.19043,-0.55957;
19:26:36.969,0.86890,0.17383,-0.54517;
19:26:36.979,0.87280,0.18408,-0.55420;
19:26:36.989,0.86401,0.19385,-0.58325;
19:26:36.999,0.86426,0.18774,-0.60425;
19:26:37.009,0.85791,0.15894,-0.61328;
19:26:37.019,0.84717,0.15112,-0.61035;
19:26:37.029,0.83447,0.17554,-0.61206;
19:26:37.039,0.82690,0.18433,-0.62988;
19:26:37.049,0.81274,0.16064,-0.61377;
19:26:37.059,0.80151,0.15503,-0.60303;
19:26:37.069,0.79077,0.18042,-0.59644;
19:26:37.079,0.77490,0.18359,-0.58765;
19:26:37.089,0.76440,0.21021,-0.59546;
19:26:37.099,0.75537,0.25073,-0.61035;
19:26:37.109,0.78027,0.24951,-0.62378;
19:26:37.119,0.78491,0.28296,-0.61646;
19:26:37.129,0.78271,0.28247,-0.59937;
19:26:37.139,0.78052,0.27368,-0.58765;
19:26:37.149,0.78076,0.27075,-0.58081;
19:26:37.159,0.77881,0.27417,-0.57690;
19:26:37.169,0.77661,0.28320,-0.57739;
19:26:37.179,0.77612,0.28638,-0.58838;
19:26:37.189,0.77271,0.27979,-0.59961;
19:26:37.199,0.77124,0.27637,-0.59253;
19:26:37.209,0.76904,0.26367,-0.57910;
19:26:37.219,0.76880,0.26782,-0.58179;
19:26:37.229,0.76440,0.27856,-0.59424;
19:26:37.239,0.76074,0.27783,-0.59790;
19:26:37.249,0.76196,0.27856,-0.59155;
19:26:37.259,0.76709,0.29150,-0.58521;
19:26:37.269,0.77539,0.30957,-0.59473;
19:26:37.279,0.77710,0.32129,-0.60083;
19:26:37.289,0.77271,0.31689,-0.61084;
19:26:37.299,0.76587,0.28882,-0.62549;
19:26:37.309,0.76099,0.27319,-0.64185;
19:26:37.319,0.76001,0.26489,-0.66235;
19:26:37.329,0.75659,0.26563,-0.68481;
19:26:37.339,0.76367,0.27344,-0.68872;
19:26:37.349,0.76172,0.25195,-0.64771;
19:26:37.359,0.76123,0.24609,-0.59863;
19:26:37.369,0.76880,0.26123,-0.55835;
19:26:37.379,0.74756,0.26294,-0.54297;
19:26:37.389,0.75342,0.26245,-0.55322;
19:26:37.399,0.76270,0.25049,-0.56885;
19:26:37.409,0.76025,0.23804,-0.59521;
19:26:37.419,0.75903,0.24146,-0.61206;
19:26:37.429,0.75366,0.28003,-0.58008;
19:26:37.439,0.74463,0.29980,-0.56177;
19:26:37.449,0.74780,0.33789,-0.55396;
19:26:37.459,0.74658,0.36694,-0.54858;
19:26:37.469,0.75415,0.35034,-0.54517;
19:26:37.479,0.76025,0.31567,-0.55029;
19:26:37.489,0.77344,0.29248,-0.54834;
19:26:37.499,0.78711,0.28638,-0.53638;
19:26:37.509,0.80200,0.28467,-0.53516;
19:26:37.519,0.83838,0.29565,-0.53589;
19:26:37.529,0.84570,0.31812,-0.53687;
19:26:37.539,0.86719,0.31860,-0.52905;
19:26:37.549,0.89355,0.28711,-0.52832;
19:26:37.559,0.88940,0.26660,-0.53174;
19:26:37.569,0.90796,0.24609,-0.51587;
19:26:37.579,0.89453,0.28247,-0.52100;
19:26:37.589,0.88428,0.34814,-0.54712;
19:26:37.599,0.87622,0.36377,-0.57397;
19:26:37.609,0.86011,0.36646,-0.59863;
19:26:37.619,0.85010,0.32983,-0.60913;
19:26:37.629,0.83252,0.28467,-0.60962;
19:26:37.639,0.82080,0.27783,-0.60571;
19:26:37.649,0.80298,0.27075,-0.59766;
19:26:37.659,0.79663,0.26733,-0.59546;
19:26:37.669,0.80371,0.30762,-0.60132;
19:26:37.679,0.80615,0.37427,-0.60620;
19:26:37.689,0.79395,0.41187,-0.59863;
19:26:37.699,0.77710,0.41504,-0.58936;
19:26:37.709,0.76050,0.38672,-0.58081;
19:26:37.719,0.73926,0.36084,-0.57324;
19:26:37.729,0.72949,0.37500,-0.57739;
19:26:37.739,0.72412,0.38501,-0.57324;
19:26:37.749,0.73779,0.39282,-0.57739;
19:26:37.759,0.78540,0.40601,-0.53174;
19:26:37.769,0.80127,0.44409,-0.50732;
19:26:37.779,0.79492,0.43579,-0.50098;
19:26:37.789,0.78125,0.41846,-0.50806;
19:26:37.799,0.76831,0.41040,-0.51807;
19:26:37.809,0.77002,0.40186,-0.51636;
19:26:37.819,0.77344,0.39160,-0.50342;
19:26:37.829,0.76733,0.41602,-0.49927;
19:26:37.839,0.76978,0.44604,-0.50928;
19:26:37.849,0.77954,0.43579,-0.52100;
19:26:37.859,0.78223,0.39355,-0.52979;
19:26:37.869,0.78125,0.37012,-0.53979;
19:26:37.879,0.77148,0.36743,-0.55762;
19:26:37.889,0.77002,0.33911,-0.56836;
19:26:37.899,0.76538,0.32788,-0.56689;
19:26:37.909,0.75830,0.32324,-0.55591;
19:26:37.919,0.75757,0.30737,-0.54419;
19:26:37.929,0.77124,0.31299,-0.54150;
19:26:37.939,0.77734,0.33228,-0.53760;
19:26:37.949,0.77344,0.34131,-0.54053;
19:26:37.959,0.78296,0.33521,-0.54053;
19:26:37.969,0.81201,0.32788,-0.53442;
19:26:37.979,0.82251,0.33838,-0.52686;
19:26:37.989,0.81714,0.35254,-0.51904;
19:26:37.999,0.83057,0.34473,-0.51367;
19:26:38.009,0.82764,0.34839,-0.50439;
19:26:38.019,0.80640,0.36572,-0.52466;
19:26:38.029,0.80200,0.37500,-0.55859;
19:26:38.039,0.80200,0.38330,-0.58643;
19:26:38.049,0.79150,0.38818,-0.59448;
19:26:38.059,0.79468,0.38086,-0.58105;
19:26:38.069,0.79907,0.37012,-0.56836;
19:26:38.079,0.80664,0.22412,-0.51563;
19:26:38.089,0.84521,0.29834,-0.54199;
19:26:38.099,0.84546,0.38550,-0.57715;
19:26:38.109,0.83838,0.42529,-0.55908;
19:26:38.119,0.82617,0.41748,-0.53052;
19:26:38.129,0.81567,0.37720,-0.50830;
19:26:38.139,0.80420,0.32422,-0.50708;
19:26:38.149,0.81226,0.32935,-0.52954;
19:26:38.159,0.81152,0.35352,-0.55444;
19:26:38.169,0.81494,0.36353,-0.57935;
19:26:38.179,0.81567,0.39819,-0.58936;
19:26:38.189,0.80762,0.43311,-0.57568;
19:26:38.199,0.79858,0.40601,-0.54248;
19:26:38.209,0.79834,0.33789,-0.51855;
19:26:38.219,0.80811,0.32251,-0.52856;
19:26:38.229,0.80981,0.32983,-0.54517;
19:26:38.239,0.81372,0.34033,-0.55322;
19:26:38.249,0.81348,0.36621,-0.55981;
19:26:38.259,0.81128,0.38721,-0.57031;
19:26:38.269,0.81641,0.39575,-0.57202;
19:26:38.279,0.82153,0.36963,-0.55908;
19:26:38.289,0.82690,0.36987,-0.54102;
19:26:38.299,0.82153,0.39697,-0.52881;
19:26:38.309,0.81274,0.38916,-0.52539;
19:26:38.319,0.80884,0.35645,-0.53003;
19:26:38.329,0.80981,0.32861,-0.53613;
19:26:38.339,0.80640,0.31860,-0.53687;
19:26:38.349,0.80493,0.30859,-0.52881;
19:26:38.359,0.82031,0.33984,-0.53687;
19:26:38.369,0.83911,0.40869,-0.56128;
19:26:38.379,0.85547,0.44092,-0.57739;
19:26:38.389,0.85571,0.43115,-0.58081;
19:26:38.399,0.84058,0.41455,-0.58032;
19:26:38.409,0.79932,0.41895,-0.55786;
19:26:38.419,0.76685,0.48950,-0.53369;
19:26:38.429,0.76978,0.50391,-0.53931;
19:26:38.439,0.77637,0.50415,-0.55396;
19:26:38.449,0.77881,0.48584,-0.55615;
19:26:38.459,0.77393,0.45557,-0.56128;
19:26:38.469,0.76636,0.45679,-0.55811;
19:26:38.479,0.75146,0.45630,-0.53613;
19:26:38.489,0.73535,0.42383,-0.51855;
19:26:38.499,0.72827,0.41309,-0.50684;
19:26:38.509,0.72266,0.40820,-0.50757;
19:26:38.519,0.70898,0.42578,-0.52881;
19:26:38.529,0.69116,0.44702,-0.56396;
19:26:38.539,0.68188,0.46582,-0.57227;
19:26:38.549,0.68945,0.48169,-0.56030;
19:26:38.559,0.70044,0.36890,-0.52856;
19:26:38.569,0.68555,0.38867,-0.55054;
19:26:38.579,0.67529,0.41187,-0.56177;
19:26:38.589,0.66455,0.46753,-0.57739;
19:26:38.599,0.66064,0.51318,-0.55933;
19:26:38.609,0.66357,0.44409,-0.51050;
19:26:38.619,0.67285,0.37354,-0.49731;
19:26:38.629,0.69287,0.35034,-0.51929;
19:26:38.639,0.71606,0.33691,-0.56787;
19:26:38.649,0.73901,0.31665,-0.62280;
19:26:38.659,0.74927,0.27051,-0.63306;
19:26:38.669,0.75488,0.26465,-0.62598;
19:26:38.679,0.74390,0.24731,-0.60718;
19:26:38.689,0.72852,0.23560,-0.60449;
19:26:38.699,0.76221,0.26636,-0.66577;
19:26:38.709,0.75317,0.26807,-0.65747;
19:26:38.719,0.74731,0.26563,-0.65430;
19:26:38.729,0.72144,0.26563,-0.60303;
19:26:38.739,0.72266,0.30127,-0.61670;
19:26:38.749,0.72485,0.32983,-0.62036;
19:26:38.759,0.72607,0.37793,-0.62378;
19:26:38.769,0.74170,0.45605,-0.61060;
19:26:38.779,0.74268,0.41187,-0.60400;
19:26:38.789,0.74854,0.33643,-0.59839;
19:26:38.799,0.75269,0.26733,-0.59497;
19:26:38.809,0.75317,0.23145,-0.59546;
19:26:38.819,0.74878,0.25781,-0.61133;
19:26:38.829,0.75195,0.28271,-0.63452;
19:26:38.839,0.75977,0.30005,-0.63330;
19:26:38.849,0.76563,0.29980,-0.62158;
19:26:38.859,0.77295,0.29883,-0.62915;
19:26:38.869,0.77393,0.29224,-0.64746;
19:26:38.879,0.77979,0.25781,-0.67114;
19:26:38.889,0.77734,0.24097,-0.66235;
19:26:38.899,0.77051,0.20703,-0.62769;
19:26:38.909,0.77002,0.20947,-0.61523;
19:26:38.919,0.77393,0.25415,-0.63330;
19:26:38.929,0.78149,0.27832,-0.65503;
19:26:38.939,0.78833,0.27417,-0.67871;
19:26:38.949,0.83154,0.22583,-0.67822;
19:26:38.959,0.87134,0.22388,-0.66772;
19:26:38.969,0.88281,0.22754,-0.66821;
19:26:38.979,0.88965,0.22778,-0.67798;
19:26:38.989,0.89355,0.25708,-0.70361;
19:26:38.999,0.89551,0.27881,-0.73486;
19:26:39.009,0.88916,0.28662,-0.73779;
19:26:39.019,0.86768,0.27319,-0.69458;
19:26:39.029,0.84180,0.25049,-0.67188;
19:26:39.039,0.82080,0.26929,-0.69312;
19:26:39.049,0.82422,0.31616,-0.72778;
19:26:39.059,0.83984,0.35913,-0.74878;
19:26:39.069,0.84082,0.33472,-0.73364;
19:26:39.079,0.82788,0.27222,-0.69434;
19:26:39.089,0.80786,0.24121,-0.64355;
19:26:39.099,0.77856,0.21338,-0.59497;
19:26:39.109,0.74463,0.22412,-0.56885;
19:26:39.119,0.71582,0.29736,-0.58447;
19:26:39.129,0.69238,0.33130,-0.59302;
19:26:39.139,0.67188,0.28418,-0.56421;
19:26:39.149,0.63306,0.21387,-0.53198;
19:26:39.159,0.58862,0.21533,-0.52417;
19:26:39.169,0.55103,0.24609,-0.53882;
19:26:39.179,0.54980,0.28760,-0.57813;
19:26:39.189,0.59863,0.36060,-0.61987;
19:26:39.199,0.63721,0.37280,-0.63550;
19:26:39.209,0.64746,0.29004,-0.62280;
19:26:39.219,0.64282,0.18872,-0.59644;
19:26:39.229,0.62207,0.17065,-0.60034;
19:26:39.239,0.61768,0.22559,-0.63672;
19:26:39.249,0.63306,0.27368,-0.67920;
19:26:39.259,0.64868,0.31396,-0.71558;
19:26:39.269,0.65967,0.31299,-0.71655;
19:26:39.279,0.69189,0.18042,-0.66260;
19:26:39.289,0.72803,0.22876,-0.71167;
19:26:39.299,0.76196,0.24390,-0.73462;
19:26:39.309,0.77026,0.25806,-0.73486;
19:26:39.319,0.76196,0.21558,-0.71509;
19:26:39.329,0.73877,0.18140,-0.67969;
19:26:39.339,0.71338,0.18750,-0.65381;
19:26:39.349,0.70459,0.19873,-0.64697;
19:26:39.359,0.71021,0.22095,-0.64404;
19:26:39.369,0.71973,0.24731,-0.64917;
19:26:39.379,0.72021,0.25610,-0.64551;
19:26:39.389,0.71460,0.25610,-0.63721;
19:26:39.399,0.70825,0.26660,-0.62598;
19:26:39.409,0.70532,0.24487,-0.62671;
19:26:39.419,0.71582,0.21436,-0.64551;
19:26:39.429,0.72876,0.18970,-0.65015;
19:26:39.439,0.73535,0.16992,-0.65771;
19:26:39.449,0.75146,0.17310,-0.65991;
19:26:39.459,0.76343,0.17065,-0.65405;
19:26:39.469,0.78271,0.15186,-0.65576;
19:26:39.479,0.79785,0.16064,-0.70020;
19:26:39.489,0.81421,0.20630,-0.75195;
19:26:39.499,0.80713,0.24072,-0.75391;
19:26:39.509,0.80176,0.23511,-0.74121;
19:26:39.519,0.78491,0.19165,-0.69409;
19:26:39.529,0.76563,0.13354,-0.66577;
19:26:39.539,0.75952,0.12280,-0.65454;
19:26:39.549,0.75220,0.16577,-0.65527;
19:26:39.559,0.75757,0.19751,-0.67065;
19:26:39.569,0.76367,0.21118,-0.66846;
19:26:39.579,0.75122,0.21680,-0.66260;
19:26:39.589,0.71655,0.21802,-0.65918;
19:26:39.599,0.74731,0.22314,-0.66284;
19:26:39.609,0.76245,0.22070,-0.64551;
19:26:39.619,0.77197,0.23193,-0.62793;
19:26:39.629,0.77905,0.23022,-0.62134;
19:26:39.639,0.78149,0.21313,-0.64868;
19:26:39.649,0.77002,0.22925,-0.66089;
19:26:39.659,0.74780,0.26807,-0.67114;
19:26:39.669,0.74170,0.27759,-0.69141;
19:26:39.679,0.75562,0.25098,-0.69385;
19:26:39.689,0.76538,0.20776,-0.68848;
19:26:39.699,0.76660,0.17993,-0.68262;
19:26:39.709,0.76611,0.16748,-0.68286;
19:26:39.719,0.75586,0.17163,-0.66479;
19:26:39.729,0.74048,0.16455,-0.64038;
19:26:39.739,0.73291,0.17432,-0.63867;
19:26:39.749,0.74023,0.20361,-0.64648;
19:26:39.759,0.75586,0.21069,-0.65479;
19:26:39.769,0.76538,0.20605,-0.66626;
19:26:39.779,0.76904,0.19360,-0.64600;
19:26:39.789,0.76978,0.16602,-0.61230;
19:26:39.799,0.76514,0.17578,-0.59692;
19:26:39.809,0.76660,0.21191,-0.59912;
19:26:39.819,0.77930,0.22754,-0.67798;
19:26:39.829,0.79736,0.26855,-0.74048;
19:26:39.839,0.78467,0.26782,-0.71802;
19:26:39.849,0.77393,0.22852,-0.69604;
19:26:39.859,0.76587,0.16431,-0.65601;
19:26:39.869,0.75342,0.14014,-0.62988;
19:26:39.879,0.75830,0.15552,-0.64063;
19:26:39.889,0.76245,0.17285,-0.68262;
19:26:39.899,0.76343,0.21802,-0.71582;
19:26:39.909,0.75732,0.21997,-0.65747;
19:26:39.919,0.75562,0.16187,-0.61768;
19:26:39.929,0.74536,0.20972,-0.62500;
19:26:39.939,0.75293,0.19580,-0.62158;
19:26:39.949,0.76758,0.22534,-0.65454;
19:26:39.959,0.79297,0.27124,-0.71387;
19:26:39.969,0.78027,0.27441,-0.69775;
19:26:39.979,0.75830,0.26245,-0.66016;
19:26:39.989,0.73389,0.19727,-0.64453;
19:26:39.999,0.73340,0.17480,-0.66187;
19:26:40.009,0.76147,0.19800,-0.69189;
19:26:40.019,0.76514,0.19580,-0.72144;
19:26:40.029,0.77271,0.17236,-0.70850;
19:26:40.039,0.77124,0.15698,-0.66577;
19:26:40.049,0.76611,0.16357,-0.62866;
19:26:40.059,0.75464,0.16089,-0.61401;
19:26:40.069,0.75659,0.19287,-0.63110;
19:26:40.079,0.76563,0.20313,-0.63477;
19:26:40.089,0.76709,0.19409,-0.64136;
19:26:40.099,0.76978,0.20361,-0.65942;
19:26:40.109,0.77393,0.21240,-0.67700;
19:26:40.119,0.77710,0.22046,-0.67896;
19:26:40.129,0.77612,0.23535,-0.67993;
19:26:40.139,0.76929,0.22852,-0.66919;
19:26:40.149,0.75952,0.22021,-0.65869;
19:26:40.159,0.75854,0.23608,-0.66528;
19:26:40.169,0.76440,0.24170,-0.66406;
19:26:40.179,0.76636,0.22217,-0.65894;
19:26:40.189,0.76611,0.19946,-0.66528;
19:26:40.199,0.76978,0.18726,-0.66528;
19:26:40.209,0.76367,0.15259,-0.64331;
19:26:40.219,0.73926,0.14844,-0.63086;
19:26:40.229,0.72339,0.18604,-0.65698;
19:26:40.239,0.72607,0.23047,-0.69775;
19:26:40.249,0.75122,0.23096,-0.69580;
19:26:40.259,0.73828,0.17749,-0.63208;
19:26:40.269,0.70728,0.17065,-0.60449;
19:26:40.279,0.70728,0.27222,-0.62793;
19:26:40.289,0.72461,0.30859,-0.64966;
19:26:40.299,0.73389,0.27930,-0.65503;
19:26:40.309,0.74097,0.23364,-0.66284;
19:26:40.319,0.75342,0.16846,-0.66602;
19:26:40.329,0.76172,0.15161,-0.66089;
19:26:40.339,0.75830,0.15283,-0.67896;
19:26:40.349,0.76294,0.16724,-0.70361;
19:26:40.359,0.76514,0.17700,-0.71509;
19:26:40.369,0.77051,0.19238,-0.73242;
19:26:40.379,0.77661,0.20898,-0.73340;
19:26:40.389,0.77002,0.16992,-0.70313;
19:26:40.399,0.75952,0.14526,-0.67041;
19:26:40.409,0.73682,0.17139,-0.65283;
19:26:40.419,0.73633,0.22119,-0.65552;
19:26:40.429,0.73828,0.25000,-0.65454;
19:26:40.439,0.73633,0.24707,-0.65918;
19:26:40.449,0.74414,0.25122,-0.66431;
19:26:40.459,0.74316,0.22656,-0.65112;
19:26:40.469,0.74170,0.19385,-0.63159;
19:26:40.479,0.72729,0.17651,-0.62354;
19:26:40.489,0.73560,0.18408,-0.63599;
19:26:40.499,0.74854,0.19263,-0.62988;
19:26:40.509,0.75391,0.19678,-0.63403;
19:26:40.519,0.76636,0.21680,-0.65430;
19:26:40.529,0.77393,0.23584,-0.64429;
19:26:40.539,0.77881,0.26001,-0.69604;
19:26:40.549,0.77539,0.26953,-0.75854;
19:26:40.559,0.75854,0.25952,-0.73438;
19:26:40.569,0.75586,0.22485,-0.70142;
19:26:40.579,0.77148,0.15552,-0.65869;
19:26:40.589,0.75000,0.16431,-0.65674;
19:26:40.599,0.74634,0.19409,-0.66235;
19:26:40.609,0.74023,0.26294,-0.65552;
19:26:40.619,0.72852,0.26807,-0.65674;
19:26:40.629,0.72803,0.24219,-0.66064;
19:26:40.639,0.73145,0.23291,-0.66016;
19:26:40.649,0.73169,0.20850,-0.65210;
19:26:40.659,0.73486,0.20679,-0.64160;
19:26:40.669,0.73486,0.21484,-0.63599;
19:26:40.679,0.72559,0.18970,-0.62500;
19:26:40.689,0.73169,0.20752,-0.63550;
19:26:40.699,0.75195,0.25464,-0.66138;
19:26:40.709,0.76563,0.30786,-0.67505;
19:26:40.719,0.76440,0.32886,-0.67163;
19:26:40.729,0.75977,0.30420,-0.66577;
19:26:40.739,0.76025,0.28516,-0.66406;
19:26:40.749,0.76001,0.25610,-0.66089;
19:26:40.759,0.75952,0.22314,-0.66211;
19:26:40.769,0.76392,0.22144,-0.67993;
19:26:40.779,0.76904,0.25342,-0.69580;
19:26:40.789,0.77051,0.26782,-0.67969;
19:26:40.799,0.76538,0.26733,-0.65723;
19:26:40.809,0.74902,0.26025,-0.64819;
19:26:40.819,0.72925,0.23364,-0.63403;
19:26:40.829,0.71338,0.22852,-0.64063;
19:26:40.839,0.71509,0.24780,-0.67773;
19:26:40.849,0.72925,0.25610,-0.69360;
19:26:40.859,0.73315,0.27856,-0.67456;
19:26:40.869,0.72046,0.28442,-0.61816;
19:26:40.879,0.70215,0.26904,-0.56689;
19:26:40.889,0.69849,0.27588,-0.58521;
19:26:40.899,0.70947,0.28516,-0.67700;
19:26:40.909,0.74902,0.18628,-0.71411;
19:26:40.919,0.75586,0.14258,-0.71191;
19:26:40.929,0.77148,0.14380,-0.70239;
19:26:40.939,0.77539,0.15747,-0.68945;
19:26:40.949,0.77930,0.20166,-0.69214;
19:26:40.959,0.77783,0.20605,-0.68359;
19:26:40.969,0.77271,0.16162,-0.66284;
19:26:40.979,0.76587,0.13135,-0.66821;
19:26:40.989,0.76318,0.12598,-0.68701;
19:26:40.999,0.76001,0.12305,-0.68921;
19:26:41.009,0.75317,0.14722,-0.69946;
19:26:41.019,0.74805,0.16284,-0.69629;
19:26:41.029,0.74194,0.16528,-0.67554;
19:26:41.039,0.74805,0.18286,-0.68774;
19:26:41.049,0.75391,0.18726,-0.68555;
19:26:41.059,0.73096,0.15283,-0.66211;
19:26:41.069,0.72363,0.13452,-0.66675;
19:26:41.079,0.74634,0.14087,-0.68774;
19:26:41.089,0.76392,0.14185,-0.71436;
19:26:41.099,0.76270,0.16064,-0.71777;
19:26:41.109,0.75806,0.15796,-0.68359;
19:26:41.119,0.74194,0.12769,-0.64355;
19:26:41.129,0.72241,0.14404,-0.62720;
19:26:41.139,0.72070,0.17163,-0.63818;
19:26:41.149,0.72681,0.20654,-0.66040;
19:26:41.159,0.74438,0.22925,-0.67480;
19:26:41.169,0.75684,0.21606,-0.68823;
19:26:41.179,0.76050,0.19360,-0.69287;
19:26:41.189,0.76367,0.13159,-0.67432;
19:26:41.199,0.76123,0.03101,-0.63281;
19:26:41.209,0.75708,0.02271,-0.64648;
19:26:41.219,0.79272,0.13062,-0.73267;
19:26:41.229,0.77222,0.19067,-0.68433;
19:26:41.239,0.73853,0.15405,-0.64722;
19:26:41.249,0.72314,0.14575,-0.64331;
19:26:41.259,0.73389,0.15723,-0.67529;
19:26:41.269,0.74316,0.18457,-0.70410;
19:26:41.279,0.73877,0.19263,-0.70874;
19:26:41.289,0.72949,0.16895,-0.68506;
19:26:41.299,0.73755,0.16309,-0.66504;
19:26:41.309,0.74878,0.17847,-0.66016;
19:26:41.319,0.74976,0.16309,-0.66479;
19:26:41.329,0.75146,0.16553,-0.69165;
19:26:41.339,0.75830,0.18262,-0.71631;
19:26:41.349,0.76196,0.19043,-0.73364;
19:26:41.359,0.75635,0.19385,-0.71899;
19:26:41.369,0.74243,0.17896,-0.67407;
19:26:41.379,0.73267,0.17456,-0.63599;
19:26:41.389,0.72900,0.17456,-0.62378;
19:26:41.399,0.71582,0.19043,-0.63013;
19:26:41.409,0.71826,0.21338,-0.63916;
19:26:41.419,0.73022,0.24292,-0.65210;
19:26:41.429,0.73535,0.26807,-0.65698;
19:26:41.439,0.74243,0.27954,-0.66357;
19:26:41.449,0.74756,0.25171,-0.65186;
19:26:41.459,0.74536,0.19263,-0.63647;
19:26:41.469,0.75244,0.15796,-0.64380;
19:26:41.479,0.76343,0.14868,-0.66870;
19:26:41.489,0.76563,0.17017,-0.70215;
19:26:41.499,0.77173,0.20044,-0.72437;
19:26:41.509,0.77588,0.19897,-0.73438;
19:26:41.519,0.77710,0.16943,-0.72437;
19:26:41.529,0.77539,0.14917,-0.69653;
19:26:41.539,0.77075,0.12622,-0.67310;
19:26:41.549,0.76636,0.10254,-0.66846;
19:26:41.559,0.76831,0.14453,-0.68823;
19:26:41.569,0.76685,0.14746,-0.67798;
19:26:41.579,0.76782,0.14771,-0.69531;
19:26:41.589,0.75903,0.12671,-0.70508;
19:26:41.599,0.74658,0.12476,-0.70142;
19:26:41.609,0.74414,0.16504,-0.69019;
19:26:41.619,0.74048,0.19849,-0.67212;
19:26:41.629,0.74219,0.21899,-0.65576;
19:26:41.639,0.74561,0.26318,-0.64429;
19:26:41.649,0.74194,0.30078,-0.63599;
19:26:41.659,0.73315,0.28857,-0.63477;
19:26:41.669,0.74341,0.27539,-0.66479;
19:26:41.679,0.74829,0.24121,-0.67017;
19:26:41.689,0.74194,0.19629,-0.64673;
19:26:41.699,0.73706,0.17944,-0.63428;
19:26:41.709,0.72949,0.17944,-0.62939;
19:26:41.719,0.73511,0.23389,-0.63110;
19:26:41.729,0.74536,0.28076,-0.64575;
19:26:41.739,0.74731,0.26880,-0.66089;
19:26:41.749,0.74658,0.22217,-0.67334;
19:26:41.759,0.75049,0.17529,-0.68726;
19:26:41.769,0.75098,0.15991,-0.70850;
19:26:41.779,0.74902,0.14282,-0.71753;
19:26:41.789,0.73755,0.11157,-0.69727;
19:26:41.799,0.72876,0.11401,-0.66870;
19:26:41.809,0.73242,0.14600,-0.65112;
19:26:41.819,0.74121,0.16577,-0.65796;
19:26:41.829,0.74390,0.18921,-0.66968;
19:26:41.839,0.75269,0.20679,-0.68115;
19:26:41.849,0.76660,0.17456,-0.69067;
19:26:41.859,0.77637,0.13965,-0.68433;
19:26:41.869,0.78125,0.07642,-0.63965;
19:26:41.879,0.79565,0.07910,-0.68091;
19:26:41.889,0.79224,0.21973,-0.70386;
19:26:41.899,0.77783,0.15723,-0.66431;
19:26:41.909,0.76880,0.15137,-0.64380;
19:26:41.919,0.76807,0.16113,-0.65137;
19:26:41.929,0.76465,0.15063,-0.66357;
19:26:41.939,0.75513,0.15503,-0.66821;
19:26:41.949,0.74390,0.16479,-0.67163;
19:26:41.959,0.75024,0.20923,-0.67383;
19:26:41.969,0.75098,0.22583,-0.67041;
19:26:41.979,0.75903,0.20190,-0.67212;
19:26:41.989,0.76416,0.19092,-0.68018;
19:26:41.999,0.75928,0.18457,-0.67578;
19:26:42.009,0.75879,0.16968,-0.65625;
19:26:42.019,0.75391,0.18286,-0.65454;
19:26:42.029,0.75415,0.21216,-0.65503;
19:26:42.039,0.75171,0.21411,-0.64966;
19:26:42.049,0.74927,0.21143,-0.65405;
19:26:42.059,0.75488,0.21753,-0.65820;
19:26:42.069,0.75781,0.22559,-0.66479;
19:26:42.079,0.75903,0.20972,-0.66846;
19:26:42.089,0.75464,0.18872,-0.66675;
19:26:42.099,0.73975,0.19092,-0.66626;
19:26:42.109,0.73730,0.20703,-0.66162;
19:26:42.119,0.73169,0.23804,-0.65161;
19:26:42.129,0.72729,0.26294,-0.66089;
19:26:42.139,0.73657,0.24292,-0.67603;
19:26:42.149,0.74707,0.22095,-0.68042;
19:26:42.159,0.75439,0.22168,-0.68262;
19:26:42.169,0.75610,0.23340,-0.67676;
19:26:42.179,0.75830,0.23828,-0.67578;
19:26:42.189,0.76025,0.22021,-0.66846;
19:26:42.199,0.75537,0.20898,-0.65552;
19:26:42.209,0.75195,0.21240,-0.65601;
19:26:42.219,0.75586,0.24805,-0.66675;
19:26:42.229,0.74414,0.23877,-0.64844;
19:26:42.239,0.73779,0.22363,-0.65527;
19:26:42.249,0.74048,0.22192,-0.67163;
19:26:42.259,0.74536,0.20923,-0.68359;
19:26:42.269,0.74683,0.19434,-0.68652;
19:26:42.279,0.75464,0.20654,-0.68018;
19:26:42.289,0.75586,0.23462,-0.66333;
19:26:42.299,0.74780,0.21924,-0.64038;
19:26:42.309,0.74390,0.22217,-0.63916;
19:26:42.319,0.74390,0.23389,-0.65454;
19:26:42.329,0.74780,0.21680,-0.67993;
19:26:42.339,0.75391,0.20483,-0.69751;
19:26:42.349,0.75464,0.19995,-0.69800;
19:26:42.359,0.75317,0.19946,-0.68628;
19:26:42.369,0.75391,0.20947,-0.66528;
19:26:42.379,0.74634,0.22949,-0.65186;
19:26:42.389,0.73584,0.23291,-0.64185;
19:26:42.399,0.73267,0.22705,-0.64819;
19:26:42.409,0.74121,0.21655,-0.66431;
19:26:42.419,0.74683,0.22339,-0.67871;
19:26:42.429,0.74927,0.23999,-0.68872;
19:26:42.439,0.75024,0.23975,-0.69189;
19:26:42.449,0.75122,0.23975,-0.68408;
19:26:42.459,0.75439,0.22729,-0.66528;
19:26:42.469,0.75464,0.20801,-0.66968;
19:26:42.479,0.75781,0.20459,-0.67554;
19:26:42.489,0.75732,0.19995,-0.66016;
19:26:42.499,0.74146,0.18799,-0.64624;
19:26:42.509,0.72607,0.19604,-0.64600;
19:26:42.519,0.72314,0.22705,-0.65820;
19:26:42.529,0.72632,0.24756,-0.67065;
19:26:42.539,0.73657,0.22852,-0.66626;
19:26:42.549,0.74878,0.16309,-0.65332;
19:26:42.559,0.75684,0.19653,-0.67065;
19:26:42.569,0.76587,0.21313,-0.68433;
19:26:42.579,0.76514,0.21655,-0.68481;
19:26:42.589,0.77100,0.22632,-0.67993;
19:26:42.599,0.77734,0.22095,-0.66968;
19:26:42.609,0.78369,0.20386,-0.66455;
19:26:42.619,0.78955,0.16675,-0.63794;
19:26:42.629,0.79150,0.13965,-0.65039;
19:26:42.639,0.79175,0.17285,-0.68433;
19:26:42.649,0.79102,0.18579,-0.69897;
19:26:42.659,0.79175,0.20605,-0.70483;
19:26:42.669,0.78149,0.19507,-0.68042;
19:26:42.679,0.76978,0.16846,-0.66699;
19:26:42.689,0.75049,0.10889,-0.64038;
19:26:42.699,0.72485,0.08716,-0.65308;
19:26:42.709,0.73633,0.15552,-0.70337;
19:26:42.719,0.75952,0.21875,-0.72168;
19:26:42.729,0.76318,0.26489,-0.72046;
19:26:42.739,0.76050,0.27100,-0.70630;
19:26:42.749,0.75830,0.25488,-0.67554;
19:26:42.759,0.74854,0.20459,-0.64111;
19:26:42.769,0.72949,0.18213,-0.64355;
19:26:42.779,0.72705,0.19531,-0.66504;
19:26:42.789,0.73853,0.20386,-0.67041;
19:26:42.799,0.74829,0.22070,-0.67578;
19:26:42.809,0.75757,0.24341,-0.67529;
19:26:42.819,0.76099,0.25757,-0.65137;
19:26:42.829,0.75586,0.26807,-0.62671;
19:26:42.839,0.73364,0.26904,-0.62524;
19:26:42.849,0.71851,0.24756,-0.62988;
19:26:42.859,0.71313,0.22461,-0.64746;
19:26:42.869,0.73535,0.21460,-0.68457;
19:26:42.879,0.73511,0.18555,-0.67896;
19:26:42.889,0.72192,0.16284,-0.65796;
19:26:42.899,0.71436,0.19434,-0.66089;
19:26:42.909,0.71924,0.23364,-0.67139;
19:26:42.919,0.72559,0.25781,-0.67383;
19:26:42.929,0.73657,0.27075,-0.67310;
19:26:42.939,0.73926,0.25146,-0.66187;
19:26:42.949,0.74536,0.23608,-0.65820;
19:26:42.959,0.74902,0.22925,-0.66040;
19:26:42.969,0.74658,0.22534,-0.66040;
19:26:42.979,0.73901,0.21582,-0.66016;
19:26:42.989,0.73242,0.22021,-0.67236;
19:26:42.999,0.72412,0.23901,-0.69629;
19:26:43.009,0.72021,0.23779,-0.69995;
19:26:43.019,0.72632,0.22192,-0.69116;
19:26:43.029,0.73096,0.21240,-0.68408;
19:26:43.039,0.73340,0.20776,-0.66968;
19:26:43.049,0.73096,0.19604,-0.65063;
19:26:43.059,0.72607,0.19141,-0.65137;
19:26:43.069,0.72290,0.19214,-0.66040;
19:26:43.079,0.72119,0.23145,-0.67432;
19:26:43.089,0.72119,0.25781,-0.68384;
19:26:43.099,0.72241,0.25439,-0.68286;
19:26:43.109,0.72485,0.24268,-0.67896;
19:26:43.119,0.72168,0.20508,-0.68677;
19:26:43.129,0.72998,0.22729,-0.68384;
19:26:43.139,0.74341,0.24414,-0.67529;
19:26:43.149,0.75146,0.22729,-0.67236;
19:26:43.159,0.76001,0.20288,-0.65747;
19:26:43.169,0.77051,0.18115,-0.65186;
19:26:43.179,0.77881,0.15625,-0.69189;
19:26:43.189,0.76196,0.16577,-0.69482;
19:26:43.199,0.73755,0.21777,-0.68799;
19:26:43.209,0.73560,0.28735,-0.68433;
19:26:43.219,0.72827,0.28149,-0.66211;
19:26:43.229,0.72144,0.22168,-0.67480;
19:26:43.239,0.72754,0.20874,-0.70337;
19:26:43.249,0.73389,0.21631,-0.70459;
19:26:43.259,0.72437,0.22412,-0.68066;
19:26:43.269,0.72559,0.24390,-0.67358;
19:26:43.279,0.72656,0.27026,-0.66772;
19:26:43.289,0.72021,0.25098,-0.65918;
19:26:43.299,0.72534,0.20068,-0.65918;
19:26:43.309,0.74707,0.18970,-0.65820;
19:26:43.319,0.76367,0.17529,-0.64868;
19:26:43.329,0.75903,0.15137,-0.62231;
19:26:43.339,0.74634,0.13721,-0.60986;
19:26:43.349,0.76367,0.16870,-0.64233;
19:26:43.359,0.79419,0.27539,-0.74023;
19:26:43.369,0.77173,0.31641,-0.73462;
19:26:43.379,0.72168,0.28174,-0.67334;
19:26:43.389,0.72241,0.27002,-0.68115;
19:26:43.399,0.74463,0.20679,-0.68188;
19:26:43.409,0.74902,0.15771,-0.68384;
19:26:43.419,0.75610,0.16553,-0.68872;
19:26:43.429,0.74927,0.16406,-0.69629;
19:26:43.439,0.72461,0.17041,-0.68970;
19:26:43.449,0.71606,0.18896,-0.69458;
19:26:43.459,0.71729,0.18408,-0.67700;
19:26:43.469,0.73877,0.20728,-0.66943;
19:26:43.479,0.73657,0.23657,-0.65430;
19:26:43.489,0.73169,0.26099,-0.64771;
19:26:43.499,0.72632,0.27368,-0.65283;
19:26:43.509,0.72852,0.27173,-0.65771;
19:26:43.519,0.73999,0.25513,-0.65186;
19:26:43.529,0.74365,0.23047,-0.64087;
19:26:43.539,0.74194,0.23706,-0.64258;
19:26:43.549,0.74756,0.25659,-0.66138;
19:26:43.559,0.75317,0.25879,-0.67334;
19:26:43.569,0.74902,0.24829,-0.68091;
19:26:43.579,0.74512,0.23975,-0.68970;
19:26:43.589,0.75146,0.25317,-0.68774;
19:26:43.599,0.74878,0.26904,-0.67456;
19:26:43.609,0.73706,0.27344,-0.66772;
19:26:43.619,0.73755,0.25854,-0.67993;
19:26:43.629,0.75195,0.23291,-0.69678;
19:26:43.639,0.75928,0.21558,-0.70068;
19:26:43.649,0.75659,0.19702,-0.69238;
19:26:43.659,0.75049,0.18896,-0.69043;
19:26:43.669,0.74243,0.18115,-0.67017;
19:26:43.679,0.73145,0.19531,-0.65210;
19:26:43.689,0.73267,0.22632,-0.65527;
19:26:43.699,0.74414,0.24829,-0.65967;
19:26:43.709,0.75171,0.26978,-0.66260;
19:26:43.719,0.75439,0.26489,-0.65942;
19:26:43.729,0.74561,0.24316,-0.65112;
19:26:43.739,0.73267,0.19214,-0.64307;
19:26:43.749,0.72583,0.16772,-0.66284;
19:26:43.759,0.73145,0.19604,-0.69336;
19:26:43.769,0.73682,0.21851,-0.70654;
19:26:43.779,0.74390,0.23901,-0.71582;
19:26:43.789,0.75586,0.24463,-0.67261;
19:26:43.799,0.74683,0.19312,-0.62866;
19:26:43.809,0.75977,0.18701,-0.60791;
19:26:43.819,0.78394,0.20459,-0.67822;
19:26:43.829,0.79224,0.25635,-0.72119;
19:26:43.839,0.77954,0.27295,-0.71558;
19:26:43.849,0.77002,0.26831,-0.69849;
19:26:43.859,0.76172,0.23975,-0.66431;
19:26:43.869,0.75781,0.19751,-0.65796;
19:26:43.879,0.75610,0.18750,-0.65283;
19:26:43.889,0.75269,0.18384,-0.67822;
19:26:43.899,0.75098,0.18945,-0.70923;
19:26:43.909,0.73584,0.18945,-0.70483;
19:26:43.919,0.71582,0.19360,-0.68311;
19:26:43.929,0.70923,0.21387,-0.66504;
19:26:43.939,0.70898,0.22119,-0.66479;
19:26:43.949,0.71265,0.21802,-0.66113;
19:26:43.959,0.71313,0.21533,-0.64844;
19:26:43.969,0.72046,0.22656,-0.64893;
19:26:43.979,0.73071,0.24805,-0.65259;
19:26:43.989,0.73828,0.25708,-0.65747;
19:26:43.999,0.74023,0.26880,-0.65942;
19:26:44.009,0.74219,0.27295,-0.65674;
19:26:44.019,0.74341,0.26416,-0.64136;
19:26:44.029,0.73901,0.25830,-0.63477;
19:26:44.039,0.72827,0.25684,-0.64600;
19:26:44.049,0.72705,0.25464,-0.66821;
19:26:44.059,0.74072,0.23096,-0.68408;
19:26:44.069,0.74658,0.22900,-0.69092;
19:26:44.079,0.75513,0.24780,-0.70264;
19:26:44.089,0.75317,0.22412,-0.68555;
19:26:44.099,0.74512,0.20337,-0.65991;
19:26:44.109,0.74829,0.19751,-0.65552;
19:26:44.119,0.76270,0.19312,-0.72095;
19:26:44.129,0.75415,0.24780,-0.67236;
19:26:44.139,0.75806,0.27661,-0.66064;
19:26:44.149,0.73755,0.22510,-0.64746;
19:26:44.159,0.71558,0.18408,-0.63086;
19:26:44.169,0.71924,0.18359,-0.63916;
19:26:44.179,0.74487,0.19019,-0.66699;
19:26:44.189,0.76489,0.19263,-0.68677;
19:26:44.199,0.76978,0.19580,-0.69263;
19:26:44.209,0.78076,0.20361,-0.67114;
19:26:44.219,0.79150,0.17749,-0.62256;
19:26:44.229,0.80103,0.15771,-0.67163;
19:26:44.239,0.78638,0.21484,-0.70557;
19:26:44.249,0.76514,0.24219,-0.70483;
19:26:44.259,0.76025,0.24829,-0.73364;
19:26:44.269,0.76514,0.23145,-0.72241;
19:26:44.279,0.76929,0.20166,-0.71460;
19:26:44.289,0.77075,0.18188,-0.68457;
19:26:44.299,0.76465,0.15576,-0.65552;
19:26:44.309,0.75244,0.18359,-0.64941;
19:26:44.319,0.74072,0.22827,-0.64990;
19:26:44.329,0.73462,0.24683,-0.64771;
19:26:44.339,0.73950,0.26245,-0.65747;
19:26:44.349,0.74731,0.25586,-0.66382;
19:26:44.359,0.74585,0.22778,-0.65454;
19:26:44.369,0.73901,0.23291,-0.65063;
19:26:44.379,0.73657,0.24487,-0.65430;
19:26:44.389,0.73096,0.26147,-0.65015;
19:26:44.399,0.72217,0.27808,-0.65259;
19:26:44.409,0.72070,0.28174,-0.64966;
19:26:44.419,0.71973,0.27490,-0.63965;
19:26:44.429,0.71045,0.26758,-0.64502;
19:26:44.439,0.71021,0.26367,-0.67090;
19:26:44.449,0.72778,0.24268,-0.69238;
19:26:44.459,0.73413,0.23389,-0.68774;
19:26:44.469,0.73315,0.25732,-0.68604;
19:26:44.479,0.73413,0.25879,-0.67822;
19:26:44.489,0.72876,0.24146,-0.67554;
19:26:44.499,0.72388,0.22559,-0.67188;
19:26:44.509,0.72266,0.21460,-0.66260;
19:26:44.519,0.71606,0.21167,-0.67285;
19:26:44.529,0.71509,0.21948,-0.68872;
19:26:44.539,0.72412,0.23853,-0.67944;
19:26:44.549,0.72705,0.26611,-0.66821;
19:26:44.559,0.72803,0.26953,-0.66187;
19:26:44.569,0.72412,0.24829,-0.65430;
19:26:44.579,0.71899,0.22583,-0.64746;
19:26:44.589,0.72485,0.23047,-0.65649;
19:26:44.599,0.73462,0.23218,-0.67603;
19:26:44.609,0.74146,0.22583,-0.68701;
19:26:44.619,0.73413,0.21948,-0.69287;
19:26:44.629,0.73389,0.22559,-0.68823;
19:26:44.639,0.75684,0.21777,-0.67554;
19:26:44.649,0.77637,0.21802,-0.69946;
19:26:44.659,0.77612,0.22583,-0.69678;
19:26:44.669,0.76855,0.22681,-0.67749;
19:26:44.679,0.76050,0.26294,-0.68555;
19:26:44.689,0.74023,0.27783,-0.67627;
19:26:44.699,0.72192,0.25366,-0.64990;
19:26:44.709,0.71631,0.21411,-0.63159;
19:26:44.719,0.71704,0.20703,-0.63452;
19:26:44.729,0.72656,0.21460,-0.64990;
19:26:44.739,0.73779,0.22144,-0.66162;
19:26:44.749,0.73242,0.22925,-0.65234;
19:26:44.759,0.72241,0.22949,-0.65259;
19:26:44.769,0.74487,0.24170,-0.71460;
19:26:44.779,0.75073,0.22388,-0.70142;
19:26:44.789,0.75049,0.23560,-0.69092;
19:26:44.799,0.74316,0.24194,-0.67090;
19:26:44.809,0.72803,0.23730,-0.66235;
19:26:44.819,0.72314,0.23633,-0.66992;
19:26:44.829,0.72290,0.24292,-0.67480;
19:26:44.839,0.71948,0.25000,-0.67236;
19:26:44.849,0.71948,0.25342,-0.66895;
19:26:44.859,0.72046,0.25122,-0.66846;
19:26:44.869,0.72119,0.24756,-0.67480;
19:26:44.879,0.73267,0.25757,-0.68530;
19:26:44.889,0.72876,0.27002,-0.67700;
19:26:44.899,0.71948,0.26172,-0.65625;
19:26:44.909,0.71631,0.24951,-0.64087;
19:26:44.919,0.71313,0.24951,-0.64307;
19:26:44.929,0.72388,0.22681,-0.67065;
19:26:44.939,0.73145,0.20898,-0.70728;
19:26:44.949,0.73120,0.22485,-0.70703;
19:26:44.959,0.72876,0.24219,-0.68579;
19:26:44.969,0.73096,0.25146,-0.65771;
19:26:44.979,0.73730,0.29736,-0.61523;
19:26:44.989,0.73999,0.34937,-0.59668;
19:26:44.999,0.74048,0.32446,-0.61108;
19:26:45.009,0.74219,0.26733,-0.63818;
19:26:45.019,0.74658,0.21191,-0.67749;
19:26:45.029,0.75781,0.17627,-0.71753;
19:26:45.039,0.75635,0.16455,-0.73828;
19:26:45.049,0.74878,0.15942,-0.74414;
19:26:45.059,0.75439,0.18042,-0.73511;
19:26:45.069,0.76270,0.20557,-0.72217;
19:26:45.079,0.76636,0.20459,-0.71533;
19:26:45.089,0.76099,0.19043,-0.68408;
19:26:45.099,0.73901,0.20215,-0.67871;
19:26:45.109,0.72021,0.25464,-0.66309;
19:26:45.119,0.71973,0.27832,-0.66113;
19:26:45.129,0.71973,0.27271,-0.64624;
19:26:45.139,0.72559,0.27295,-0.64160;
19:26:45.149,0.72241,0.25293,-0.63525;
19:26:45.159,0.71387,0.25562,-0.63062;
19:26:45.169,0.72510,0.26440,-0.65381;
19:26:45.179,0.72852,0.24121,-0.67407;
19:26:45.189,0.72144,0.24878,-0.67456;
19:26:45.199,0.72144,0.27954,-0.66895;
19:26:45.209,0.72607,0.28662,-0.66406;
19:26:45.219,0.72485,0.26782,-0.65991;
19:26:45.229,0.72974,0.23120,-0.65747;
19:26:45.239,0.74146,0.22705,-0.66504;
19:26:45.249,0.75000,0.23706,-0.67090;
19:26:45.259,0.75952,0.24487,-0.67407;
19:26:45.269,0.76392,0.24048,-0.68262;
19:26:45.279,0.76660,0.20068,-0.67334;
19:26:45.289,0.77271,0.15552,-0.66895;
19:26:45.299,0.78516,0.17554,-0.71338;
19:26:45.309,0.77319,0.23389,-0.72437;
19:26:45.319,0.75806,0.22388,-0.69629;
19:26:45.329,0.73730,0.24878,-0.66821;
19:26:45.339,0.71729,0.27686,-0.65479;
19:26:45.349,0.71655,0.23633,-0.67114;
19:26:45.359,0.71533,0.21802,-0.67114;
19:26:45.369,0.71851,0.20117,-0.66724;
19:26:45.379,0.71460,0.18018,-0.67310;
19:26:45.389,0.71143,0.19312,-0.67847;
19:26:45.399,0.70776,0.22412,-0.68066;
19:26:45.409,0.71240,0.25537,-0.70068;
19:26:45.419,0.72461,0.24756,-0.69434;
19:26:45.429,0.73242,0.21899,-0.69287;
19:26:45.439,0.72241,0.23169,-0.65869;
19:26:45.449,0.70435,0.23730,-0.64648;
19:26:45.459,0.69824,0.25952,-0.65771;
19:26:45.469,0.70313,0.27100,-0.67554;
19:26:45.479,0.70972,0.27173,-0.67969;
19:26:45.489,0.71509,0.26196,-0.68311;
19:26:45.499,0.72070,0.25317,-0.67627;
19:26:45.509,0.72241,0.24854,-0.67529;
19:26:45.519,0.71606,0.25244,-0.66724;
19:26:45.529,0.70996,0.27075,-0.66455;
19:26:45.539,0.70825,0.27710,-0.66992;
19:26:45.549,0.70776,0.26929,-0.67285;
19:26:45.559,0.70483,0.25879,-0.67065;
19:26:45.569,0.70679,0.25146,-0.67236;
19:26:45.579,0.71387,0.24219,-0.67188;
19:26:45.589,0.71240,0.23389,-0.66602;
19:26:45.599,0.70557,0.24365,-0.66187;
19:26:45.609,0.70728,0.24683,-0.65039;
19:26:45.619,0.70972,0.25806,-0.65381;
19:26:45.629,0.71094,0.27124,-0.65723;
19:26:45.639,0.71460,0.28003,-0.66187;
19:26:45.649,0.71899,0.28442,-0.66455;
19:26:45.659,0.72510,0.27344,-0.65942;
19:26:45.669,0.72974,0.27490,-0.66797;
19:26:45.679,0.73926,0.27832,-0.67896;
19:26:45.689,0.74634,0.27051,-0.68213;
19:26:45.699,0.74438,0.26611,-0.67578;
19:26:45.709,0.74634,0.28003,-0.67285;
19:26:45.719,0.74414,0.30518,-0.67676;
19:26:45.729,0.74658,0.31470,-0.67993;
19:26:45.739,0.75000,0.31396,-0.68091;
19:26:45.749,0.71362,0.27173,-0.66089;
19:26:45.759,0.71802,0.28394,-0.65356;
19:26:45.769,0.72974,0.28833,-0.64771;
19:26:45.779,0.73560,0.28589,-0.64917;
19:26:45.789,0.73657,0.28296,-0.65894;
19:26:45.799,0.73926,0.28638,-0.67285;
19:26:45.809,0.73608,0.28027,-0.66260;
19:26:45.819,0.72949,0.26587,-0.64233;
19:26:45.829,0.72925,0.25610,-0.63525;
19:26:45.839,0.73560,0.26099,-0.64209;
19:26:45.849,0.74658,0.28882,-0.65698;
19:26:45.859,0.75220,0.30981,-0.66553;
19:26:45.869,0.75415,0.30176,-0.67383;
19:26:45.879,0.75122,0.27661,-0.67212;
19:26:45.889,0.74658,0.26563,-0.66138;
19:26:45.899,0.73804,0.25854,-0.64600;
19:26:45.909,0.73169,0.25903,-0.63745;
19:26:45.919,0.72607,0.26807,-0.64136;
19:26:45.929,0.72412,0.29688,-0.64673;
19:26:45.939,0.73926,0.34790,-0.65039;
19:26:45.949,0.75171,0.34570,-0.65308;
19:26:45.959,0.75415,0.28809,-0.64648;
19:26:45.969,0.73755,0.24683,-0.64087;
19:26:45.979,0.71680,0.22241,-0.64209;
19:26:45.989,0.71338,0.21313,-0.64624;
19:26:45.999,0.71094,0.24951,-0.66406;
19:26:46.009,0.71216,0.28198,-0.67017;
19:26:46.019,0.71851,0.30908,-0.66455;
19:26:46.029,0.72559,0.32568,-0.65503;
19:26:46.039,0.73267,0.30200,-0.64136;
19:26:46.049,0.73413,0.27393,-0.63477;
19:26:46.059,0.72266,0.24023,-0.63306;
19:26:46.069,0.71484,0.23706,-0.64087;
19:26:46.079,0.74658,0.28003,-0.66284;
19:26:46.089,0.74072,0.29321,-0.62769;
19:26:46.099,0.72681,0.27588,-0.61230;
19:26:46.109,0.72070,0.27783,-0.61279;
19:26:46.119,0.72632,0.29395,-0.61890;
19:26:46.129,0.75220,0.30591,-0.63818;
19:26:46.139,0.77441,0.30786,-0.66235;
19:26:46.149,0.78589,0.29639,-0.65869;
19:26:46.159,0.78735,0.28442,-0.63696;
19:26:46.169,0.77295,0.26929,-0.62036;
19:26:46.179,0.76538,0.27612,-0.62598;
19:26:46.189,0.76465,0.28809,-0.64526;
19:26:46.199,0.76758,0.29419,-0.65063;
19:26:46.209,0.77344,0.29395,-0.64868;
19:26:46.219,0.78003,0.27441,-0.64038;
19:26:46.229,0.78247,0.26538,-0.63257;
19:26:46.239,0.78516,0.28174,-0.64722;
19:26:46.249,0.78784,0.28003,-0.66187;
19:26:46.259,0.78613,0.25586,-0.67090;
19:26:46.269,0.78418,0.25391,-0.68042;
19:26:46.279,0.78345,0.24854,-0.68213;
19:26:46.289,0.77734,0.22510,-0.67456;
19:26:46.299,0.77124,0.23560,-0.66602;
19:26:46.309,0.76611,0.23755,-0.65112;
19:26:46.319,0.75122,0.22070,-0.63672;
19:26:46.329,0.73779,0.22778,-0.64624;
19:26:46.339,0.73340,0.25171,-0.66919;
19:26:46.349,0.74170,0.27417,-0.69019;
19:26:46.359,0.75806,0.27100,-0.69556;
19:26:46.369,0.76538,0.25732,-0.68042;
19:26:46.379,0.76904,0.24902,-0.65186;
19:26:46.389,0.76538,0.24756,-0.62988;
19:26:46.399,0.75562,0.24805,-0.62231;
19:26:46.409,0.74146,0.28296,-0.64844;
19:26:46.419,0.73657,0.27197,-0.63745;
19:26:46.429,0.73584,0.26831,-0.62646;
19:26:46.439,0.74512,0.27222,-0.62476;
19:26:46.449,0.74976,0.27368,-0.62183;
19:26:46.459,0.74707,0.27539,-0.61621;
19:26:46.469,0.74121,0.28198,-0.63159;
19:26:46.479,0.73584,0.28955,-0.66333;
19:26:46.489,0.73071,0.28027,-0.66992;
19:26:46.499,0.71826,0.27490,-0.65381;
19:26:46.509,0.71436,0.27832,-0.63379;
19:26:46.519,0.71777,0.28149,-0.62231;
19:26:46.529,0.71851,0.28857,-0.61890;
19:26:46.539,0.72119,0.28125,-0.62231;
19:26:46.549,0.72925,0.28125,-0.63428;
19:26:46.559,0.74463,0.29224,-0.64136;
19:26:46.569,0.76099,0.28687,-0.64502;
19:26:46.579,0.76953,0.28516,-0.64355;
19:26:46.589,0.77759,0.28467,-0.63403;
19:26:46.599,0.77808,0.28833,-0.61133;
19:26:46.609,0.77344,0.29858,-0.61182;
19:26:46.619,0.77246,0.29858,-0.62598;
19:26:46.629,0.77148,0.30737,-0.64966;
19:26:46.639,0.77393,0.29590,-0.67798;
19:26:46.649,0.77466,0.27173,-0.68677;
19:26:46.659,0.77148,0.27051,-0.68457;
19:26:46.669,0.76611,0.26733,-0.66650;
19:26:46.679,0.75269,0.26270,-0.64111;
19:26:46.689,0.74194,0.27124,-0.62598;
19:26:46.699,0.73828,0.28271,-0.62061;
19:26:46.709,0.73999,0.28760,-0.62207;
19:26:46.719,0.74463,0.28589,-0.62817;
19:26:46.729,0.74731,0.29150,-0.64893;
19:26:46.739,0.74878,0.29370,-0.64648;
19:26:46.749,0.75293,0.28345,-0.63501;
19:26:46.759,0.75635,0.28052,-0.62817;
19:26:46.769,0.75244,0.26636,-0.62183;
19:26:46.779,0.74976,0.26563,-0.63013;
19:26:46.789,0.75122,0.27026,-0.63672;
19:26:46.799,0.75049,0.26636,-0.64063;
19:26:46.809,0.75073,0.27197,-0.64697;
19:26:46.819,0.75317,0.27588,-0.64624;
19:26:46.829,0.75244,0.27881,-0.64575;
19:26:46.839,0.75659,0.28589,-0.65161;
19:26:46.849,0.76245,0.27393,-0.65356;
19:26:46.859,0.76025,0.26733,-0.65674;
19:26:46.869,0.75708,0.27295,-0.65332;
19:26:46.879,0.75000,0.27246,-0.64600;
19:26:46.889,0.75317,0.27905,-0.64917;
19:26:46.899,0.76050,0.28931,-0.64795;
19:26:46.909,0.76245,0.29028,-0.64160;
19:26:46.919,0.76050,0.29126,-0.62769;
19:26:46.929,0.74585,0.28003,-0.61426;
19:26:46.939,0.74048,0.26855,-0.61963;
19:26:46.949,0.74341,0.27368,-0.63940;
19:26:46.959,0.74829,0.27710,-0.65186;
19:26:46.969,0.75000,0.28125,-0.64819;
19:26:46.979,0.75586,0.28418,-0.65186;
19:26:46.989,0.76147,0.28394,-0.64697;
19:26:46.999,0.75586,0.26807,-0.63696;
19:26:47.009,0.74878,0.25903,-0.62476;
19:26:47.019,0.73926,0.27026,-0.62622;
19:26:47.029,0.74194,0.27930,-0.64795;
19:26:47.039,0.75000,0.28003,-0.65332;
19:26:47.049,0.74951,0.27930,-0.64990;
19:26:47.059,0.74927,0.27783,-0.65234;
19:26:47.069,0.75220,0.28223,-0.62964;
19:26:47.079,0.74365,0.27637,-0.62329;
19:26:47.089,0.74268,0.27515,-0.63428;
19:26:47.099,0.74756,0.27832,-0.65430;
19:26:47.109,0.75244,0.28418,-0.67383;
19:26:47.119,0.74927,0.28857,-0.68311;
19:26:47.129,0.74316,0.27759,-0.66162;
19:26:47.139,0.73584,0.25757,-0.63623;
19:26:47.149,0.73511,0.25977,-0.62622;
19:26:47.159,0.73901,0.27319,-0.62622;
19:26:47.169,0.74146,0.28442,-0.65112;
19:26:47.179,0.75342,0.30640,-0.68164;
19:26:47.189,0.76538,0.29663,-0.67334;
19:26:47.199,0.76758,0.27661,-0.65308;
19:26:47.209,0.76880,0.27710,-0.65039;
19:26:47.219,0.77344,0.27319,-0.64380;
19:26:47.229,0.77539,0.27905,-0.63281;
19:26:47.239,0.77466,0.27490,-0.62207;
19:26:47.249,0.76709,0.27075,-0.61108;
19:26:47.259,0.75928,0.25781,-0.57739;
19:26:47.269,0.75732,0.21655,-0.49707;
19:26:47.279,0.74707,0.21289,-0.52075;
19:26:47.289,0.78491,0.33081,-0.68628;
19:26:47.299,0.76367,0.33643,-0.73901;
19:26:47.309,0.77148,0.33301,-0.74365;
19:26:47.319,0.76367,0.26489,-0.66602;
19:26:47.329,0.75562,0.18823,-0.59619;
19:26:47.339,0.74414,0.20020,-0.65088;
19:26:47.349,0.75977,0.25415,-0.71265;
19:26:47.359,0.76074,0.23291,-0.68433;
19:26:47.369,0.75024,0.23340,-0.66382;
19:26:47.379,0.74023,0.26123,-0.64307;
19:26:47.389,0.73755,0.28271,-0.62622;
19:26:47.399,0.73901,0.28955,-0.63306;
19:26:47.409,0.74316,0.29663,-0.64258;
19:26:47.419,0.74756,0.30469,-0.65210;
19:26:47.429,0.74951,0.30273,-0.64673;
19:26:47.439,0.74390,0.28345,-0.62012;
19:26:47.449,0.73096,0.28491,-0.59082;
19:26:47.459,0.71826,0.29810,-0.58252;
19:26:47.469,0.71362,0.33252,-0.60132;
19:26:47.479,0.72070,0.35596,-0.62817;
19:26:47.489,0.72803,0.35815,-0.64795;
19:26:47.499,0.73291,0.35156,-0.65625;
19:26:47.509,0.73462,0.33521,-0.65674;
19:26:47.519,0.73047,0.30835,-0.63867;
19:26:47.529,0.71924,0.27637,-0.62134;
19:26:47.539,0.71362,0.27832,-0.63159;
19:26:47.549,0.71826,0.30908,-0.65845;
19:26:47.559,0.73242,0.33008,-0.67627;
19:26:47.569,0.74487,0.31470,-0.67603;
19:26:47.579,0.74902,0.30859,-0.66113;
19:26:47.589,0.73877,0.29565,-0.63794;
19:26:47.599,0.72632,0.26855,-0.61694;
19:26:47.609,0.71973,0.27515,-0.62671;
19:26:47.619,0.71924,0.33838,-0.65576;
19:26:47.629,0.71948,0.35645,-0.66382;
19:26:47.639,0.71851,0.34985,-0.66821;
19:26:47.649,0.72437,0.37500,-0.67017;
19:26:47.659,0.72485,0.37964,-0.65039;
19:26:47.669,0.72705,0.37891,-0.63379;
19:26:47.679,0.71509,0.40698,-0.61670;
19:26:47.689,0.70654,0.41260,-0.61328;
19:26:47.699,0.70361,0.41235,-0.60254;
19:26:47.709,0.70337,0.42090,-0.59570;
19:26:47.719,0.70068,0.43408,-0.59277;
19:26:47.729,0.69727,0.44946,-0.59326;
19:26:47.739,0.69849,0.45313,-0.59009;
19:26:47.749,0.70410,0.48926,-0.60059;
19:26:47.759,0.69800,0.50293,-0.59082;
19:26:47.769,0.68970,0.48340,-0.57544;
19:26:47.779,0.68506,0.47827,-0.56982;
19:26:47.789,0.68237,0.48047,-0.56714;
19:26:47.799,0.68066,0.49316,-0.58325;
19:26:47.809,0.68042,0.49219,-0.59912;
19:26:47.819,0.68677,0.47852,-0.60840;
19:26:47.829,0.68896,0.47461,-0.61157;
19:26:47.839,0.69360,0.48218,-0.61865;
19:26:47.849,0.69482,0.47437,-0.61328;
19:26:47.859,0.69214,0.46558,-0.60571;
19:26:47.869,0.69360,0.45337,-0.59888;
19:26:47.879,0.69751,0.43408,-0.59204;
19:26:47.889,0.70142,0.44702,-0.60474;
19:26:47.899,0.70703,0.46582,-0.62036;
19:26:47.909,0.70703,0.46240,-0.63110;
19:26:47.919,0.70386,0.46436,-0.63550;
19:26:47.929,0.69653,0.43237,-0.61792;
19:26:47.939,0.67578,0.39404,-0.59741;
19:26:47.949,0.66528,0.40845,-0.60522;
19:26:47.959,0.67993,0.43872,-0.61060;
19:26:47.969,0.69482,0.45532,-0.61133;
19:26:47.979,0.69946,0.46606,-0.61743;
19:26:47.989,0.69775,0.45239,-0.60791;
19:26:47.999,0.68970,0.43262,-0.59912;
19:26:48.009,0.66260,0.44556,-0.58765;
19:26:48.019,0.65479,0.48926,-0.59546;
19:26:48.029,0.66040,0.50244,-0.61060;
19:26:48.039,0.66797,0.50000,-0.62109;
19:26:48.049,0.65918,0.49951,-0.61475;
19:26:48.059,0.64795,0.50171,-0.59692;
19:26:48.069,0.64282,0.50122,-0.59082;
19:26:48.079,0.64331,0.50293,-0.58862;
19:26:48.089,0.64795,0.49683,-0.58667;
19:26:48.099,0.64722,0.49707,-0.58960;
19:26:48.109,0.64966,0.49756,-0.59766;
19:26:48.119,0.65527,0.49731,-0.60791;
19:26:48.129,0.65771,0.53003,-0.60083;
19:26:48.139,0.66162,0.55005,-0.58447;
19:26:48.149,0.66431,0.53320,-0.56958;
19:26:48.159,0.67090,0.52930,-0.55981;
19:26:48.169,0.67700,0.56445,-0.53760;
19:26:48.179,0.66479,0.61011,-0.52344;
19:26:48.189,0.66309,0.64331,-0.52661;
19:26:48.199,0.68091,0.65649,-0.53833;
19:26:48.209,0.70142,0.68457,-0.53931;
19:26:48.219,0.70093,0.65259,-0.54077;
19:26:48.229,0.68677,0.50195,-0.54810;
19:26:48.239,0.66895,0.40649,-0.55688;
19:26:48.249,0.65356,0.41748,-0.58081;
19:26:48.259,0.64819,0.44556,-0.59131;
19:26:48.269,0.64136,0.45215,-0.60815;
19:26:48.279,0.64551,0.46387,-0.62988;
19:26:48.289,0.65894,0.50903,-0.65088;
19:26:48.299,0.67554,0.51660,-0.68311;
19:26:48.309,0.70703,0.47607,-0.68188;
19:26:48.319,0.73877,0.37915,-0.63965;
19:26:48.329,0.73486,0.20752,-0.59937;
19:26:48.339,0.71362,0.12378,-0.63428;
19:26:48.349,0.76074,0.15430,-0.72388;
19:26:48.359,0.77734,0.07959,-0.69604;
19:26:48.369,0.76416,-0.00854,-0.64453;
19:26:48.379,0.74268,-0.07983,-0.62256;
19:26:48.389,0.73364,-0.13818,-0.61914;
19:26:48.399,0.71411,-0.15747,-0.62378;
19:26:48.409,0.70313,-0.14258,-0.62183;
19:26:48.419,0.70605,-0.12891,-0.64893;
19:26:48.429,0.72168,-0.13452,-0.69946;
19:26:48.439,0.73706,-0.16553,-0.71924;
19:26:48.449,0.73633,-0.18628,-0.70508;
19:26:48.459,0.73608,-0.19922,-0.67261;
19:26:48.469,0.73096,-0.22070,-0.63647;
19:26:48.479,0.72900,-0.22925,-0.61792;
19:26:48.489,0.74756,-0.21729,-0.61646;
19:26:48.499,0.76685,-0.19458,-0.63867;
19:26:48.509,0.78101,-0.19043,-0.67090;
19:26:48.519,0.80054,-0.21851,-0.68701;
19:26:48.529,0.80029,-0.23584,-0.67651;
19:26:48.539,0.78223,-0.22900,-0.65698;
19:26:48.549,0.77124,-0.21436,-0.64795;
19:26:48.559,0.77026,-0.21436,-0.65454;
19:26:48.569,0.77588,-0.23242,-0.68481;
19:26:48.579,0.78369,-0.22729,-0.72168;
19:26:48.589,0.78687,-0.21021,-0.74292;
19:26:48.599,0.79102,-0.20361,-0.74951;
19:26:48.609,0.79248,-0.17554,-0.75098;
19:26:48.619,0.78760,-0.12524,-0.74414;
19:26:48.629,0.77563,-0.10034,-0.71191;
19:26:48.639,0.76318,-0.10596,-0.67188;
19:26:48.649,0.75806,-0.10400,-0.65356;
19:26:48.659,0.76001,-0.07446,-0.66357;
19:26:48.669,0.78564,-0.08911,-0.74756;
19:26:48.679,0.78174,-0.01489,-0.70142;
19:26:48.689,0.78101,0.00024,-0.67944;
19:26:48.699,0.78174,0.00586,-0.66431;
19:26:48.709,0.78247,-0.01416,-0.64771;
19:26:48.719,0.78467,-0.01929,-0.65503;
19:26:48.729,0.80005,-0.02148,-0.68604;
19:26:48.739,0.80811,-0.01758,-0.70654;
19:26:48.749,0.80005,-0.01929,-0.71069;
19:26:48.759,0.79004,-0.02905,-0.70825;
19:26:48.769,0.78760,-0.02319,-0.69604;
19:26:48.779,0.78296,-0.04321,-0.67749;
19:26:48.789,0.77783,-0.05566,-0.66968;
19:26:48.799,0.78125,-0.05371,-0.68457;
19:26:48.809,0.79102,-0.05493,-0.70020;
19:26:48.819,0.78687,-0.04614,-0.67969;
19:26:48.829,0.76807,-0.03296,-0.64087;
19:26:48.839,0.75928,-0.04004,-0.62866;
19:26:48.849,0.76611,-0.05420,-0.65112;
19:26:48.859,0.77563,-0.04980,-0.68311;
19:26:48.869,0.78247,-0.05249,-0.70142;
19:26:48.879,0.78882,-0.06860,-0.71265;
19:26:48.889,0.79785,-0.09009,-0.73120;
19:26:48.899,0.81030,-0.08472,-0.74048;
19:26:48.909,0.81714,-0.07153,-0.73608;
19:26:48.919,0.80469,-0.05322,-0.69580;
19:26:48.929,0.78320,-0.01196,-0.66357;
19:26:48.939,0.79395,-0.01025,-0.69385;
19:26:48.949,0.82056,-0.03149,-0.74292;
19:26:48.959,0.83032,-0.04297,-0.78394;
19:26:48.969,0.83130,-0.07324,-0.80151;
19:26:48.979,0.83545,-0.10083,-0.84424;
19:26:48.989,0.88794,-0.15552,-0.86597;
19:26:48.999,0.89136,-0.10083,-0.80518;
19:26:49.009,0.90894,-0.11182,-0.82739;
19:26:49.019,0.94287,-0.11035,-0.86182;
19:26:49.029,0.95923,-0.10522,-0.88037;
19:26:49.039,0.96094,-0.10010,-0.90918;
19:26:49.049,0.96704,-0.09888,-0.94800;
19:26:49.059,0.98169,-0.10107,-0.97681;
19:26:49.069,0.98096,-0.09985,-0.98975;
19:26:49.079,0.96948,-0.08911,-0.97070;
19:26:49.089,0.96240,-0.06592,-0.93945;
19:26:49.099,0.96191,-0.03662,-0.90430;
19:26:49.109,0.94434,-0.01709,-0.88672;
19:26:49.119,0.90332,-0.01685,-0.89697;
19:26:49.129,0.90747,0.00732,-0.89575;
19:26:49.139,0.85693,0.04956,-0.91992;
19:26:49.149,0.77100,0.06616,-0.98315;
19:26:49.159,0.79736,0.08008,-1.00415;
19:26:49.169,0.72021,0.09106,-1.04175;
19:26:49.179,0.59595,0.12085,-1.11523;
19:26:49.189,0.53442,0.13989,-1.15698;
19:26:49.199,0.47559,0.11499,-1.17041;
19:26:49.209,0.43506,0.08960,-1.15771;
19:26:49.219,0.36841,0.07422,-1.10596;
19:26:49.229,0.31421,0.06177,-1.01660;
19:26:49.239,0.26904,0.04395,-0.93359;
19:26:49.249,0.22803,0.03198,-0.88525;
19:26:49.259,0.20190,0.04443,-0.87573;
19:26:49.269,0.19067,0.06299,-0.89648;
19:26:49.279,0.19263,0.07642,-0.94189;
19:26:49.289,0.20752,0.08447,-0.98511;
19:26:49.299,0.21191,0.08545,-0.99414;
19:26:49.309,0.20313,0.06348,-0.95093;
19:26:49.319,0.12744,0.07568,-0.86401;
19:26:49.329,0.08179,0.20850,-0.77344;
19:26:49.339,0.05811,0.22656,-0.74146;
19:26:49.349,0.05957,0.23193,-0.73071;
19:26:49.359,0.08350,0.23706,-0.72314;
19:26:49.369,0.10986,0.24048,-0.71826;
19:26:49.379,0.12158,0.22266,-0.72290;
19:26:49.389,0.11938,0.18823,-0.72266;
19:26:49.399,0.12183,0.16235,-0.70801;
19:26:49.409,0.14185,0.20654,-0.69873;
19:26:49.419,0.16113,0.35815,-0.66895;
19:26:49.429,0.17139,0.43457,-0.64502;
19:26:49.439,0.16919,0.38818,-0.64429;
19:26:49.449,0.16382,0.33301,-0.64697;
19:26:49.459,0.17627,0.31030,-0.66675;
19:26:49.469,0.18506,0.29712,-0.66553;
19:26:49.479,0.18945,0.25195,-0.64990;
19:26:49.489,0.19434,0.18872,-0.64258;
19:26:49.499,0.20264,0.13623,-0.63428;
19:26:49.509,0.21143,0.09790,-0.62695;
19:26:49.519,0.21802,0.05225,-0.63525;
19:26:49.529,0.22681,0.04517,-0.66187;
19:26:49.539,0.24219,0.12476,-0.68994;
19:26:49.549,0.25317,0.23950,-0.72070;
19:26:49.559,0.25195,0.30908,-0.72656;
19:26:49.569,0.24414,0.32715,-0.71216;
19:26:49.579,0.23901,0.31421,-0.70337;
19:26:49.589,0.23389,0.28711,-0.71118;
19:26:49.599,0.23242,0.25537,-0.71826;
19:26:49.609,0.24438,0.19995,-0.72876;
19:26:49.619,0.25513,0.13843,-0.75415;
19:26:49.629,0.26172,0.09717,-0.77441;
19:26:49.639,0.27539,0.02881,-0.89697;
19:26:49.649,0.30981,0.04736,-0.96753;
19:26:49.659,0.29395,0.06250,-0.99023;
19:26:49.669,0.27686,0.07373,-1.02197;
19:26:49.679,0.26709,0.07983,-1.05151;
19:26:49.689,0.26294,0.05200,-1.07886;
19:26:49.699,0.26343,0.03101,-1.10083;
19:26:49.709,0.28003,0.02002,-1.11011;
19:26:49.719,0.33008,0.00610,-1.11890;
19:26:49.729,0.39819,0.00269,-1.12085;
19:26:49.739,0.45752,0.02710,-1.12061;
19:26:49.749,0.50195,0.04761,-1.16138;
19:26:49.759,0.52734,0.07690,-1.20850;
19:26:49.769,0.59546,0.20288,-1.28516;
19:26:49.779,0.63647,0.23413,-1.34888;
19:26:49.789,0.67065,0.23950,-1.42651;
19:26:49.799,0.69604,0.21582,-1.46753;
19:26:49.809,0.73999,0.16992,-1.45068;
19:26:49.819,0.80737,0.13306,-1.40674;
19:26:49.829,0.89478,0.08960,-1.35205;
19:26:49.839,0.97607,0.03760,-1.31274;
19:26:49.849,1.02637,-0.01953,-1.28735;
19:26:49.859,1.04126,-0.08911,-1.27441;
19:26:49.869,0.99756,-0.17334,-1.26953;
19:26:49.879,0.90112,-0.25562,-1.23608;
19:26:49.889,0.81104,-0.35132,-1.15796;
19:26:49.899,0.77393,-0.43433,-1.08545;
19:26:49.909,0.78687,-0.43970,-1.04932;
19:26:49.919,0.82861,-0.40308,-1.02197;
19:26:49.929,0.85156,-0.36133,-1.01294;
19:26:49.939,0.84961,-0.34448,-1.01196;
19:26:49.949,0.82739,-0.36426,-1.00293;
19:26:49.959,0.78101,-0.44409,-0.86328;
19:26:49.969,0.60083,-0.55029,-0.67944;
19:26:49.979,0.61792,-0.49536,-0.70166;
19:26:49.989,0.66162,-0.52051,-0.70874;
19:26:49.999,0.75171,-0.52734,-0.72168;
19:26:50.009,0.87012,-0.50610,-0.73340;
19:26:50.019,0.97974,-0.51611,-0.72998;
19:26:50.029,1.04346,-0.54712,-0.71899;
19:26:50.039,1.06372,-0.55176,-0.72607;
19:26:50.049,1.08325,-0.53589,-0.74170;
19:26:50.059,1.11377,-0.54443,-0.73608;
19:26:50.069,1.13281,-0.58838,-0.69043;
19:26:50.079,1.11841,-0.60376,-0.61499;
19:26:50.089,1.09448,-0.57788,-0.55444;
19:26:50.099,1.08325,-0.54492,-0.52441;
19:26:50.109,1.04517,-0.54565,-0.49146;
19:26:50.119,0.98828,-0.57007,-0.43970;
19:26:50.129,0.93921,-0.55737,-0.39087;
19:26:50.139,0.88696,-0.53467,-0.32007;
19:26:50.149,0.82178,-0.50293,-0.26489;
19:26:50.159,0.72681,-0.48657,-0.20117;
19:26:50.169,0.57935,-0.48120,-0.08203;
19:26:50.179,0.38184,-0.48340,0.05469;
19:26:50.189,0.12500,-0.48438,0.20288;
19:26:50.199,-0.19946,-0.46631,0.37427;
19:26:50.209,-0.50781,-0.40112,0.37500;
19:26:50.219,-0.66724,-0.08325,0.06079;
19:26:50.229,-0.70679,0.41138,-0.28418;
19:26:50.239,-0.76416,0.77881,-0.48291;
19:26:50.249,-0.50854,0.94458,-0.12720;
19:26:50.259,-0.28662,0.83203,0.11621;
19:26:50.269,-0.11035,0.78369,0.08228;
19:26:50.279,0.09473,0.52612,-0.33105;
19:26:50.289,0.24780,0.13232,0.00464;
19:26:50.299,0.38647,-0.06567,0.12769;
19:26:50.309,0.51074,-0.17114,0.16992;
19:26:50.319,0.60059,-0.17627,0.12061;
19:26:50.329,0.66089,-0.13525,-0.00464;
19:26:50.339,0.73804,-0.11426,-0.12720;
19:26:50.349,0.84009,-0.15259,-0.16626;
19:26:50.359,0.96509,-0.24194,-0.10669;
19:26:50.369,1.12280,-0.36548,0.02686;
19:26:50.379,1.30688,-0.51147,0.09863;
19:26:50.389,1.47095,-0.59521,0.09912;
19:26:50.399,1.59668,-0.59448,0.03223;
19:26:50.409,1.70605,-0.59839,-0.09595;
19:26:50.419,1.78687,-0.65210,-0.21484;
19:26:50.429,1.81616,-0.69971,-0.34985;
19:26:50.439,1.76855,-0.67432,-0.50269;
19:26:50.449,1.66211,-0.60815,-0.63257;
19:26:50.459,1.56641,-0.59668,-0.73804;
19:26:50.469,1.53540,-0.72266,-0.81226;
19:26:50.479,1.51660,-0.92627,-0.82715;
19:26:50.489,1.31421,-1.09497,-0.77319;
19:26:50.499,1.22412,-1.11841,-0.68921;
19:26:50.509,1.14453,-1.11182,-0.56348;
19:26:50.519,1.09644,-1.07007,-0.51611;
19:26:50.529,1.12598,-1.03882,-0.55811;
19:26:50.539,1.22070,-0.99731,-0.54663;
19:26:50.549,1.29248,-0.91431,-0.45776;
19:26:50.559,1.29980,-0.82324,-0.34717;
19:26:50.569,1.28247,-0.71387,-0.23193;
19:26:50.579,1.30884,-0.58057,-0.14429;
19:26:50.589,1.38013,-0.44800,-0.08496;
19:26:50.599,1.46802,-0.10034,-0.22876;
19:26:50.609,1.50098,-0.19995,-0.27954;
19:26:50.619,1.44824,-0.19946,-0.23438;
19:26:50.629,1.37549,-0.07544,-0.20435;
19:26:50.639,1.31006,0.04663,-0.17847;
19:26:50.649,1.24707,0.18433,-0.16748;
19:26:50.659,1.16040,0.29248,-0.17896;
19:26:50.669,1.08716,0.29175,-0.17041;
19:26:50.679,1.02856,0.25415,-0.10986;
19:26:50.689,0.97485,0.22827,-0.01855;
19:26:50.699,0.96021,0.27026,-0.02075;
19:26:50.709,1.00391,0.36548,-0.09033;
19:26:50.719,1.03271,0.42358,-0.07935;
19:26:50.729,0.96558,0.35449,-0.06812;
19:26:50.739,0.93115,0.27051,-0.05469;
19:26:50.749,1.01270,0.20630,0.05640;
19:26:50.759,1.12402,0.08545,0.06055;
19:26:50.769,1.10547,0.08765,-0.08960;
19:26:50.779,1.08569,0.26880,-0.11499;
19:26:50.789,1.14038,0.25146,0.04346;
19:26:50.799,1.15161,0.14331,0.14844;
19:26:50.809,1.17993,0.11035,0.17236;
19:26:50.819,1.22095,0.12354,0.24414;
19:26:50.829,1.25513,0.20459,0.37134;
19:26:50.839,1.25269,0.29102,0.50391;
19:26:50.849,1.23389,0.34302,0.58838;
19:26:50.859,1.24121,0.34546,0.53784;
19:26:50.869,1.28027,0.30225,0.41040;
19:26:50.879,1.37061,0.21802,0.25757;
19:26:50.889,1.43262,0.10474,0.06689;
19:26:50.899,1.40674,0.14087,-0.08057;
19:26:50.909,1.35181,0.32910,-0.13550;
19:26:50.919,1.32300,0.39575,0.13965;
19:26:50.929,1.22729,0.51001,0.38086;
19:26:50.939,1.15698,0.29395,0.34033;
19:26:50.949,1.11768,0.43945,0.15527;
19:26:50.959,1.05566,0.65356,-0.11499;
19:26:50.969,0.98193,0.87988,-0.32837;
19:26:50.979,0.92261,0.88159,-0.31055;
19:26:50.989,0.88721,0.73950,-0.14893;
19:26:50.999,0.85864,0.69214,0.03955;
19:26:51.009,0.78247,0.63672,0.24805;
19:26:51.019,0.68213,0.70435,0.38281;
19:26:51.029,0.60547,0.89917,0.40991;
19:26:51.039,0.55273,0.98730,0.34888;
19:26:51.049,0.45923,1.03809,0.21265;
19:26:51.059,0.39478,1.07910,0.13281;
19:26:51.069,0.42065,0.87817,0.18164;
19:26:51.079,0.42798,0.64038,0.17065;
19:26:51.089,0.39722,0.54785,0.17505;
19:26:51.099,0.37061,0.45117,0.33032;
19:26:51.109,0.37500,0.25903,0.58813;
19:26:51.119,0.33667,0.07617,0.75464;
19:26:51.129,0.30005,-0.03320,0.66455;
19:26:51.139,0.28271,0.10913,0.53198;
19:26:51.149,0.29639,0.47046,0.42285;
19:26:51.159,0.33521,0.65747,0.30005;
19:26:51.169,0.35181,0.62256,0.19458;
19:26:51.179,0.37451,0.49390,0.11279;
19:26:51.189,0.37988,0.43970,0.09229;
19:26:51.199,0.68481,0.18115,0.22485;
19:26:51.209,0.73120,0.27417,0.23828;
19:26:51.219,0.75952,0.28882,0.19556;
19:26:51.229,0.79053,0.27295,0.14941;
19:26:51.239,0.94214,0.25537,0.06104;
19:26:51.249,1.01099,0.27490,0.01538;
19:26:51.259,1.05615,0.30469,-0.03052;
19:26:51.269,1.06592,0.33496,-0.04834;
19:26:51.279,1.03882,0.35474,-0.05273;
19:26:51.289,0.96460,0.35474,-0.03638;
19:26:51.299,0.87427,0.33325,-0.01416;
19:26:51.309,0.82227,0.29175,-0.01563;
19:26:51.319,0.81567,0.25586,-0.03589;
19:26:51.329,0.84326,0.23535,-0.05786;
19:26:51.339,0.89307,0.23267,-0.06519;
19:26:51.349,0.93848,0.24121,-0.04907;
19:26:51.359,0.94116,0.24536,-0.03760;
19:26:51.369,0.91504,0.23730,-0.04077;
19:26:51.379,0.86670,0.23315,-0.09668;
19:26:51.389,0.86426,0.20361,-0.10986;
19:26:51.399,0.85645,0.15161,-0.11621;
19:26:51.409,0.83691,0.10938,-0.12646;
19:26:51.419,0.82031,0.11475,-0.15747;
19:26:51.429,0.82129,0.17871,-0.20093;
19:26:51.439,0.85010,0.28174,-0.24390;
19:26:51.449,0.90625,0.36060,-0.27783;
19:26:51.459,0.96826,0.38745,-0.30273;
19:26:51.469,1.00342,0.39136,-0.31274;
19:26:51.479,1.01489,0.38843,-0.30054;
19:26:51.489,1.01880,0.35596,-0.24512;
19:26:51.499,1.00977,0.29736,-0.24121;
19:26:51.509,0.99219,0.27515,-0.24756;
19:26:51.519,0.96704,0.27002,-0.22729;
19:26:51.529,0.95020,0.27197,-0.21362;
19:26:51.539,0.93164,0.27075,-0.22705;
19:26:51.549,0.90991,0.27441,-0.23950;
19:26:51.559,0.90088,0.25977,-0.24194;
19:26:51.569,0.89624,0.20874,-0.24268;
19:26:51.579,0.88379,0.16333,-0.24365;
19:26:51.589,0.86157,0.16895,-0.22681;
19:26:51.599,0.84326,0.21729,-0.18701;
19:26:51.609,0.86230,0.26074,-0.16797;
19:26:51.619,0.91211,0.27173,-0.16675;
19:26:51.629,0.96460,0.25684,-0.16406;
19:26:51.639,0.99707,0.20483,-0.14111;
19:26:51.649,0.99854,0.14575,-0.08252;
19:26:51.659,0.97925,0.13501,-0.04126;
19:26:51.669,0.97388,0.17383,-0.02417;
19:26:51.679,1.00586,0.21558,-0.04224;
19:26:51.689,1.08960,0.25830,-0.08813;
19:26:51.699,1.28149,0.22803,-0.06909;
19:26:51.709,1.32129,0.18652,-0.03101;
19:26:51.719,1.31909,0.17676,0.00293;
19:26:51.729,1.31250,0.17456,0.03564;
19:26:51.739,1.32178,0.17871,0.04395;
19:26:51.749,1.33887,0.20239,0.04614;
19:26:51.759,1.34521,0.20605,0.04688;
19:26:51.769,1.35522,0.20215,0.01733;
19:26:51.779,1.37158,0.16602,-0.01636;
19:26:51.789,1.34863,0.10889,-0.01587;
19:26:51.799,1.30054,0.07324,-0.00830;
19:26:51.809,1.25830,0.07983,-0.00293;
19:26:51.819,1.20166,0.08521,0.00952;
19:26:51.829,1.24292,0.09985,-0.08032;
19:26:51.839,1.27173,0.15967,-0.07983;
19:26:51.849,1.27710,0.21460,-0.05054;
19:26:51.859,1.26929,0.21973,-0.01440;
19:26:51.869,1.25757,0.20752,-0.01196;
19:26:51.879,1.24805,0.24194,-0.04590;
19:26:51.889,1.23218,0.25928,-0.08032;
19:26:51.899,1.20728,0.26538,-0.09448;
19:26:51.909,1.16406,0.30615,-0.07324;
19:26:51.919,1.14233,0.31421,-0.09277;
19:26:51.929,1.14722,0.28955,-0.13208;
19:26:51.939,1.15161,0.28979,-0.16235;
19:26:51.949,1.14771,0.29297,-0.18750;
19:26:51.959,1.14771,0.27808,-0.20361;
19:26:51.969,1.09985,0.27979,-0.19141;
19:26:51.979,1.07690,0.28613,-0.21460;
19:26:51.989,1.06592,0.28931,-0.23511;
19:26:51.999,1.04858,0.29297,-0.25488;
19:26:52.009,1.03076,0.30811,-0.25610;
19:26:52.019,1.02539,0.32959,-0.25000;
19:26:52.029,1.02881,0.34302,-0.24365;
19:26:52.039,1.03931,0.32935,-0.21875;
19:26:52.049,1.02783,0.31299,-0.21265;
19:26:52.059,1.02637,0.27881,-0.22363;
19:26:52.069,1.02710,0.25806,-0.23682;
19:26:52.079,1.01831,0.25684,-0.24390;
19:26:52.089,1.00195,0.28052,-0.25122;
19:26:52.099,0.99243,0.32520,-0.25391;
19:26:52.109,0.94971,0.32056,-0.22632;
19:26:52.119,0.99023,0.21777,-0.22827;
19:26:52.129,0.98047,0.20093,-0.20093;
19:26:52.139,0.97485,0.21948,-0.18945;
19:26:52.149,0.98438,0.21948,-0.19580;
19:26:52.159,0.99414,0.21924,-0.20337;
19:26:52.169,0.99878,0.29199,-0.21558;
19:26:52.179,0.99438,0.34595,-0.22217;
19:26:52.189,0.99463,0.35132,-0.22852;
19:26:52.199,1.00171,0.39185,-0.25391;
19:26:52.209,1.00635,0.34644,-0.26880;
19:26:52.219,1.00342,0.26538,-0.27637;
19:26:52.229,0.98267,0.17944,-0.18213;
19:26:52.239,1.00244,0.06763,-0.08228;
19:26:52.249,1.04468,0.08032,-0.15723;
19:26:52.259,1.06543,0.18481,-0.25513;
19:26:52.269,1.07715,0.20093,-0.25806;
19:26:52.279,1.04590,0.19092,-0.19922;
19:26:52.289,1.01343,0.18384,-0.16431;
19:26:52.299,1.01880,0.17993,-0.19092;
19:26:52.309,1.03979,0.19263,-0.22168;
19:26:52.319,1.05005,0.18042,-0.22876;
19:26:52.329,1.03662,0.18579,-0.22046;
19:26:52.339,1.02490,0.17871,-0.19922;
19:26:52.349,1.02563,0.16675,-0.19824;
19:26:52.359,1.02588,0.15967,-0.22974;
19:26:52.369,1.02026,0.16797,-0.24609;
19:26:52.379,1.00684,0.20117,-0.25366;
19:26:52.389,0.99268,0.26611,-0.25073;
19:26:52.399,0.96533,0.33618,-0.23047;
19:26:52.409,0.93604,0.31836,-0.22437;
19:26:52.419,0.92310,0.27051,-0.24146;
19:26:52.429,0.92261,0.28931,-0.28955;
19:26:52.439,0.88647,0.34570,-0.25342;
19:26:52.449,0.87573,0.33276,-0.24487;
19:26:52.459,0.87915,0.29565,-0.24072;
19:26:52.469,0.88745,0.28149,-0.23389;
19:26:52.479,0.89648,0.28271,-0.23877;
19:26:52.489,0.91040,0.28125,-0.24927;
19:26:52.499,0.91528,0.27515,-0.24951;
19:26:52.509,0.91602,0.26611,-0.24878;
19:26:52.519,0.91284,0.26880,-0.23145;
19:26:52.529,0.90234,0.27661,-0.20410;
19:26:52.539,0.89771,0.27344,-0.17554;
19:26:52.549,0.90063,0.28027,-0.16162;
19:26:52.559,0.91992,0.28711,-0.16528;
19:26:52.569,0.94873,0.27759,-0.17871;
19:26:52.579,0.97827,0.25562,-0.19629;
19:26:52.589,0.99463,0.23389,-0.20947;
19:26:52.599,0.99048,0.22388,-0.20215;
19:26:52.609,0.97656,0.21411,-0.16406;
19:26:52.619,0.95972,0.20947,-0.15112;
19:26:52.629,0.96265,0.19263,-0.15137;
19:26:52.639,0.98145,0.17676,-0.16260;
19:26:52.649,1.00269,0.16016,-0.17896;
19:26:52.659,1.01367,0.15601,-0.17871;
19:26:52.669,1.00415,0.15967,-0.17944;
19:26:52.679,0.98828,0.15869,-0.17456;
19:26:52.689,0.98096,0.15747,-0.17017;
19:26:52.699,0.98608,0.16870,-0.16553;
19:26:52.709,0.99316,0.20337,-0.17603;
19:26:52.719,1.00415,0.24731,-0.19580;
19:26:52.729,1.00537,0.26074,-0.19897;
19:26:52.739,1.00537,0.21265,-0.21191;
19:26:52.749,0.99341,0.21069,-0.22461;
19:26:52.759,0.99146,0.17310,-0.22485;
19:26:52.769,1.00024,0.16113,-0.22510;
19:26:52.779,0.99829,0.22437,-0.22266;
19:26:52.789,0.99463,0.23779,-0.22461;
19:26:52.799,0.99878,0.21948,-0.23730;
19:26:52.809,0.99463,0.23364,-0.24463;
19:26:52.819,0.99512,0.20996,-0.24951;
19:26:52.829,0.99487,0.19263,-0.25317;
19:26:52.839,0.99146,0.19678,-0.25342;
19:26:52.849,0.98804,0.19434,-0.24463;
19:26:52.859,0.99219,0.18237,-0.24097;
19:26:52.869,0.99878,0.17871,-0.24194;
19:26:52.879,0.99634,0.16968,-0.24463;
19:26:52.889,0.99634,0.18750,-0.26440;
19:26:52.899,0.99146,0.24854,-0.27832;
19:26:52.909,0.98706,0.27173,-0.29614;
19:26:52.919,0.98926,0.29102,-0.30640;
19:26:52.929,0.98340,0.28369,-0.28320;
19:26:52.939,0.99902,0.20435,-0.25464;
19:26:52.949,0.99463,0.15332,-0.23193;
19:26:52.959,1.01880,0.10547,-0.22925;
19:26:52.969,1.05933,0.09253,-0.24268;
19:26:52.979,1.08716,0.10107,-0.25879;
19:26:52.989,1.10254,0.16040,-0.24390;
19:26:52.999,1.09375,0.18188,-0.21362;
19:26:53.009,1.10303,0.14185,-0.20776;
19:26:53.019,1.11084,0.13452,-0.20068;
19:26:53.029,1.13086,0.10669,-0.18433;
19:26:53.039,1.15088,0.10083,-0.18652;
19:26:53.049,1.18408,0.11768,-0.21118;
19:26:53.059,1.21045,0.13892,-0.22290;
19:26:53.069,1.21069,0.14600,-0.22095;
19:26:53.079,1.21021,0.17407,-0.17822;
19:26:53.089,1.20874,0.17041,-0.20410;
19:26:53.099,1.18555,0.13281,-0.20532;
19:26:53.109,1.15137,0.13330,-0.20020;
19:26:53.119,1.12842,0.14697,-0.19092;
19:26:53.129,1.12524,0.16504,-0.20752;
19:26:53.139,1.14478,0.15942,-0.21924;
19:26:53.149,1.15869,0.13525,-0.20239;
19:26:53.159,1.15894,0.10449,-0.16333;
19:26:53.169,1.15869,0.08203,-0.12085;
19:26:53.179,1.15576,0.09326,-0.08911;
19:26:53.189,1.16162,0.13574,-0.09619;
19:26:53.199,1.17480,0.18042,-0.13232;
19:26:53.209,1.18628,0.16064,-0.15674;
19:26:53.219,1.19092,0.09961,-0.15405;
19:26:53.229,1.19385,0.03735,-0.13257;
19:26:53.239,1.19604,-0.00146,-0.11108;
19:26:53.249,1.19580,-0.00464,-0.08179;
19:26:53.259,1.19067,-0.00293,-0.05176;
19:26:53.269,1.19629,-0.00024,-0.04150;
19:26:53.279,1.21558,0.01318,-0.05640;
19:26:53.289,1.21167,0.02930,-0.07104;
19:26:53.299,1.19629,0.03784,-0.08838;
19:26:53.309,1.18408,0.02539,-0.10962;
19:26:53.319,1.17432,-0.00317,-0.09692;
19:26:53.329,1.17139,-0.02783,-0.05054;
19:26:53.339,1.17505,-0.03638,-0.00366;
19:26:53.349,1.19092,-0.01587,0.01245;
19:26:53.359,1.21094,0.01416,0.00781;
19:26:53.369,1.21729,0.01416,0.00195;
19:26:53.379,1.21631,-0.01050,-0.01733;
19:26:53.389,1.24878,-0.03882,-0.01611;
19:26:53.399,1.27026,-0.06909,0.01440;
19:26:53.409,1.27344,-0.09375,0.04492;
19:26:53.419,1.28369,-0.10840,0.11719;
19:26:53.429,1.31665,-0.07593,0.14355;
19:26:53.439,1.38013,-0.06494,0.09595;
19:26:53.449,1.39307,-0.10376,0.13428;
19:26:53.459,1.38062,-0.12329,0.18262;
19:26:53.469,1.36914,-0.09570,0.21240;
19:26:53.479,1.34009,-0.02979,0.21191;
19:26:53.489,1.30322,0.04224,0.19702;
19:26:53.499,1.29492,0.10181,0.16650;
19:26:53.509,1.31934,0.12720,0.13110;
19:26:53.519,1.35205,0.12891,0.11890;
19:26:53.529,1.36987,0.13867,0.12549;
19:26:53.539,1.37598,0.18091,0.12524;
19:26:53.549,1.37793,0.24170,0.11597;
19:26:53.559,1.36768,0.28540,0.10083;
19:26:53.569,1.33496,0.31592,0.07153;
19:26:53.579,1.28564,0.32813,0.02661;
19:26:53.589,1.21655,0.31470,-0.01953;
19:26:53.599,1.15186,0.29639,-0.04224;
19:26:53.609,1.09961,0.29541,-0.04199;
19:26:53.619,1.04980,0.30713,-0.04443;
19:26:53.629,1.01172,0.28760,-0.06055;
19:26:53.639,1.00317,0.21631,-0.04297;
19:26:53.649,1.00024,0.14331,0.02466;
19:26:53.659,0.93774,0.16626,0.08179;
19:26:53.669,0.84424,0.26978,0.08447;
19:26:53.679,0.76050,0.35767,0.10669;
19:26:53.689,0.67456,0.44434,0.12134;
19:26:53.699,0.57739,0.49805,0.10303;
19:26:53.709,0.50806,0.52295,0.13721;
19:26:53.719,0.47290,0.57544,0.19287;
19:26:53.729,0.44165,0.62573,0.25342;
19:26:53.739,0.45605,0.64868,0.30273;
19:26:53.749,0.51709,0.64478,0.32959;
19:26:53.759,0.63989,0.54932,0.28345;
19:26:53.769,0.52759,0.51025,0.36865;
19:26:53.779,0.58228,0.38721,0.39478;
19:26:53.789,0.63062,0.25562,0.24268;
19:26:53.799,0.58936,0.38037,0.06567;
19:26:53.809,0.54663,0.51660,0.05591;
19:26:53.819,0.50366,0.69507,0.09619;
19:26:53.829,0.53833,0.98633,-0.18066;
19:26:53.839,0.68872,0.83594,-0.46582;
19:26:53.849,0.84155,0.52808,-0.52661;
19:26:53.859,0.91650,0.50171,-0.31445;
19:26:53.869,0.97681,0.55249,0.08447;
19:26:53.879,0.99927,0.78003,0.26709;
19:26:53.889,1.01318,1.07739,0.20923;
19:26:53.899,1.04736,1.13037,0.17676;
19:26:53.909,1.05127,0.97070,0.23999;
19:26:53.919,1.04980,0.23755,0.17822;
19:26:53.929,1.02612,-0.22144,-0.01880;
19:26:53.939,0.97314,-0.48511,-0.06372;
19:26:53.949,0.99219,-0.48364,0.08398;
19:26:53.959,1.04346,-0.31519,0.24780;
19:26:53.969,1.12427,-0.12476,0.32275;
19:26:53.979,1.23071,-0.01367,0.35449;
19:26:53.989,1.30176,-0.03223,0.39185;
19:26:53.999,1.30249,-0.12476,0.42749;
19:26:54.009,1.25903,-0.19897,0.44360;
19:26:54.019,1.18433,-0.21484,0.43433;
19:26:54.029,1.11792,-0.19897,0.40527;
19:26:54.039,1.06030,-0.20923,0.37622;
19:26:54.049,1.00830,-0.23193,0.30981;
19:26:54.059,0.99609,-0.30615,0.18091;
19:26:54.069,0.94751,-0.27808,0.11084;
19:26:54.079,0.93237,0.08154,0.15259;
19:26:54.089,0.92334,0.10327,0.10693;
19:26:54.099,0.91699,0.12256,0.12671;
19:26:54.109,0.89233,0.17017,0.15649;
19:26:54.119,0.85620,0.32104,0.19531;
19:26:54.129,0.81934,0.41577,0.19995;
19:26:54.139,0.80469,0.40430,0.19897;
19:26:54.149,0.78955,0.34595,0.22339;
19:26:54.159,0.76465,0.37231,0.24146;
19:26:54.169,0.75293,0.47021,0.23633;
19:26:54.179,0.75122,0.49048,0.22852;
19:26:54.189,0.76465,0.47485,0.22217;
19:26:54.199,0.78003,0.47681,0.21777;
19:26:54.209,0.80957,0.45801,0.21582;
19:26:54.219,0.83179,0.43188,0.19897;
19:26:54.229,0.84888,0.42090,0.18384;
19:26:54.239,0.88062,0.40820,0.16675;
19:26:54.249,0.92090,0.38477,0.16528;
19:26:54.259,0.97705,0.33398,0.16870;
19:26:54.269,1.01758,0.28809,0.16357;
19:26:54.279,1.05933,0.25830,0.12500;
19:26:54.289,1.05811,0.24951,0.12231;
19:26:54.299,1.05859,0.25977,0.12402;
19:26:54.309,1.06372,0.26978,0.12646;
19:26:54.319,1.07544,0.25879,0.13574;
19:26:54.329,1.07886,0.25391,0.14404;
19:26:54.339,1.07251,0.25024,0.15894;
19:26:54.349,1.05859,0.24463,0.18237;
19:26:54.359,1.03662,0.24585,0.19922;
19:26:54.369,1.01465,0.23120,0.21167;
19:26:54.379,0.99072,0.20581,0.21313;
19:26:54.389,0.95386,0.19189,0.22021;
19:26:54.399,0.87012,0.12134,0.26367;
19:26:54.409,0.86597,0.09888,0.26489;
19:26:54.419,0.87305,0.12109,0.25586;
19:26:54.429,0.87988,0.14893,0.25366;
19:26:54.439,0.87378,0.18164,0.25342;
19:26:54.449,0.84692,0.23657,0.24878;
19:26:54.459,0.79907,0.28003,0.23413;
19:26:54.469,0.75537,0.31152,0.19897;
19:26:54.479,0.73511,0.35571,0.15308;
19:26:54.489,0.75854,0.39185,0.10767;
19:26:54.499,0.82178,0.41577,0.06665;
19:26:54.509,0.90942,0.43628,0.03711;
19:26:54.519,0.99878,0.43921,0.01782;
19:26:54.529,1.07568,0.43530,0.01636;
19:26:54.539,1.13745,0.44849,0.02148;
19:26:54.549,1.16821,0.47095,0.02588;
19:26:54.559,1.18286,0.49292,0.02783;
19:26:54.569,1.18213,0.51538,0.03467;
19:26:54.579,1.15942,0.53394,0.05005;
19:26:54.589,1.11621,0.52734,0.05957;
19:26:54.599,1.04663,0.50317,0.07227;
19:26:54.609,0.96777,0.46191,0.08667;
19:26:54.619,0.88452,0.42944,0.08496;
19:26:54.629,0.79419,0.42969,0.07129;
19:26:54.639,0.69897,0.39771,0.06763;
19:26:54.649,0.63379,0.35547,0.06250;
19:26:54.659,0.58008,0.32227,0.04590;
19:26:54.669,0.51514,0.29980,-0.00391;
19:26:54.679,0.49194,0.29614,-0.02881;
19:26:54.689,0.47681,0.29028,-0.04370;
19:26:54.699,0.47290,0.28857,-0.05713;
19:26:54.709,0.53149,0.35449,-0.06396;
19:26:54.719,0.61841,0.39380,-0.02197;
19:26:54.729,0.67651,0.39868,0.01514;
19:26:54.739,0.75684,0.40063,0.07153;
19:26:54.749,0.85620,0.39038,0.14160;
19:26:54.759,0.98755,0.38135,0.20703;
19:26:54.769,1.16138,0.38696,0.26025;
19:26:54.779,1.35229,0.43286,0.29346;
19:26:54.789,1.53784,0.48926,0.32080;
19:26:54.799,1.69604,0.50342,0.35107;
19:26:54.809,1.77759,0.44043,0.40161;
19:26:54.819,1.75635,0.38892,0.41797;
19:26:54.829,1.63892,0.37329,0.41333;
19:26:54.839,1.52148,0.35352,0.42065;
19:26:54.849,1.49170,0.33862,0.42578;
19:26:54.859,1.51978,0.32959,0.43188;
19:26:54.869,1.54834,0.33105,0.41895;
19:26:54.879,1.53613,0.31812,0.40430;
19:26:54.889,1.47705,0.28760,0.41968;
19:26:54.899,1.37305,0.24731,0.45142;
19:26:54.909,1.24561,0.20654,0.47095;
19:26:54.919,1.12720,0.18481,0.47314;
19:26:54.929,1.03638,0.18896,0.45557;
19:26:54.939,0.98242,0.19946,0.41602;
19:26:54.949,0.94531,0.21558,0.36719;
19:26:54.959,0.89136,0.24048,0.28735;
19:26:54.969,0.86987,0.25586,0.27026;
19:26:54.979,0.85132,0.27271,0.26587;
19:26:54.989,0.84106,0.28809,0.26904;
19:26:54.999,0.82861,0.30322,0.27734;
19:26:55.009,0.80176,0.31494,0.28882;
19:26:55.019,0.77417,0.31323,0.30469;
19:26:55.029,0.71631,0.30664,0.30444;
19:26:55.039,0.77271,0.30029,0.33032;
