time,acc_x,acc_y,acc_z
18:32:17.683,-0.05835,0.11646,-0.98462;
18:32:17.693,-0.06445,0.12622,-0.98633;
18:32:17.703,-0.07837,0.13770,-0.99438;
18:32:17.713,-0.09131,0.13232,-0.99756;
18:32:17.723,-0.09619,0.11206,-0.99487;
18:32:17.733,-0.10083,0.10254,-0.99390;
18:32:17.743,-0.10742,0.11133,-0.99390;
18:32:17.753,-0.11572,0.12988,-1.00293;
18:32:17.763,-0.12402,0.14038,-1.00757;
18:32:17.773,-0.12671,0.13599,-1.00366;
18:32:17.783,-0.11768,0.13062,-0.98853;
18:32:17.793,-0.11353,0.13428,-0.99072;
18:32:17.803,-0.10498,0.13818,-0.99438;
18:32:17.813,-0.09741,0.14111,-0.99609;
18:32:17.823,-0.08936,0.13892,-0.99561;
18:32:17.833,-0.05908,0.12671,-0.99268;
18:32:17.843,-0.05249,0.11646,-0.99463;
18:32:17.853,-0.05786,0.12183,-0.99438;
18:32:17.863,-0.07568,0.14380,-0.98901;
18:32:17.873,-0.09473,0.15503,-0.98779;
18:32:17.883,-0.10547,0.14624,-0.99463;
18:32:17.893,-0.10864,0.13062,-0.99512;
18:32:17.903,-0.11328,0.13208,-0.99951;
18:32:17.913,-0.11548,0.13818,-1.00171;
18:32:17.923,-0.11816,0.12354,-0.99731;
18:32:17.933,-0.11499,0.08838,-0.99512;
18:32:17.943,-0.10693,0.08130,-0.99072;
18:32:17.953,-0.10376,0.11499,-0.99219;
18:32:17.963,-0.10522,0.14648,-0.99609;
18:32:17.973,-0.10449,0.15527,-0.98584;
18:32:17.983,-0.09717,0.15210,-0.98047;
18:32:17.993,-0.09521,0.14893,-0.97900;
18:32:18.003,-0.09424,0.14331,-0.98291;
18:32:18.013,-0.09375,0.13452,-0.98438;
18:32:18.023,-0.09106,0.12842,-0.98584;
18:32:18.033,-0.08984,0.12915,-0.98950;
18:32:18.043,-0.09302,0.12573,-0.98364;
18:32:18.053,-0.09302,0.12354,-0.97900;
18:32:18.063,-0.09375,0.12354,-0.97632;
18:32:18.073,-0.08716,0.13135,-0.98340;
18:32:18.083,-0.08716,0.14087,-1.00049;
18:32:18.093,-0.09692,0.14209,-1.01025;
18:32:18.103,-0.10254,0.14526,-1.00269;
18:32:18.113,-0.06104,0.05200,-0.94141;
18:32:18.123,-0.04663,0.09351,-1.00171;
18:32:18.133,-0.07227,0.17163,-1.07202;
18:32:18.143,-0.10498,0.13843,-1.08716;
18:32:18.153,-0.10303,0.10571,-1.08618;
18:32:18.163,-0.10449,0.13574,-1.07959;
18:32:18.173,-0.10913,0.15308,-1.07080;
18:32:18.183,-0.11768,0.13940,-1.05566;
18:32:18.193,-0.11060,0.11011,-1.04712;
18:32:18.203,-0.10059,0.10376,-1.03833;
18:32:18.213,-0.10474,0.11377,-1.02954;
18:32:18.223,-0.11182,0.10620,-1.01855;
18:32:18.233,-0.11646,0.09961,-1.01318;
18:32:18.243,-0.11743,0.10425,-1.01538;
18:32:18.253,-0.11938,0.10669,-1.02295;
18:32:18.263,-0.12769,0.11182,-1.03027;
18:32:18.273,-0.14575,0.13525,-1.04199;
18:32:18.283,-0.18140,0.18457,-1.08813;
18:32:18.293,-0.21533,0.20508,-1.14038;
18:32:18.303,-0.23999,0.21582,-1.17383;
18:32:18.313,-0.26953,0.21436,-1.16919;
18:32:18.323,-0.31104,0.20459,-1.13110;
18:32:18.333,-0.32642,0.21045,-1.08667;
18:32:18.343,-0.32202,0.24927,-1.04517;
18:32:18.353,-0.31860,0.29102,-1.00903;
18:32:18.363,-0.32153,0.34375,-0.98804;
18:32:18.373,-0.39917,0.41187,-0.99146;
18:32:18.383,-0.33667,0.34912,-0.76099;
18:32:18.393,-0.32813,0.31738,-0.78638;
18:32:18.403,-0.33838,0.28857,-0.82300;
18:32:18.413,-0.33716,0.29102,-0.85425;
18:32:18.423,-0.32031,0.33716,-0.87427;
18:32:18.433,-0.29858,0.41528,-0.88501;
18:32:18.443,-0.29907,0.48682,-0.89746;
18:32:18.453,-0.31421,0.54053,-0.92505;
18:32:18.463,-0.33569,0.76831,-0.96582;
18:32:18.473,-0.30591,0.77515,-0.92236;
18:32:18.483,-0.28613,0.72461,-0.88599;
18:32:18.493,-0.27930,0.65112,-0.86328;
18:32:18.503,-0.24854,0.57837,-0.86084;
18:32:18.513,-0.22095,0.54004,-0.88208;
18:32:18.523,-0.18433,0.53418,-0.90161;
18:32:18.533,-0.12598,0.54419,-0.90088;
18:32:18.543,-0.06592,0.54248,-0.91162;
18:32:18.553,-0.05493,0.51489,-0.91797;
18:32:18.563,-0.07227,0.38599,-0.86768;
18:32:18.573,-0.09766,0.29834,-0.85742;
18:32:18.583,-0.10010,0.26001,-0.86182;
18:32:18.593,-0.09351,0.21094,-0.86792;
18:32:18.603,-0.05713,0.16235,-0.87549;
18:32:18.613,-0.00317,0.12720,-0.86987;
18:32:18.623,0.05347,0.10205,-0.85181;
18:32:18.633,0.08716,0.09644,-0.84766;
18:32:18.643,0.12134,0.08398,-0.85327;
18:32:18.653,0.18335,0.05957,-0.84985;
18:32:18.663,0.23413,0.01880,-0.81982;
18:32:18.673,0.20825,-0.06226,-0.82520;
18:32:18.683,0.21680,-0.05371,-0.83325;
18:32:18.693,0.25806,-0.02173,-0.82593;
18:32:18.703,0.29712,0.00366,-0.83472;
18:32:18.713,0.31982,0.01636,-0.85278;
18:32:18.723,0.35742,0.01563,-0.85645;
18:32:18.733,0.38770,0.00220,-0.87720;
18:32:18.743,0.39990,-0.02393,-0.89941;
18:32:18.753,0.43042,-0.07520,-0.90259;
18:32:18.763,0.48486,-0.12769,-0.90161;
18:32:18.773,0.51440,-0.17383,-0.91895;
18:32:18.783,0.49658,-0.28955,-0.96924;
18:32:18.793,0.41650,-0.30713,-0.97559;
18:32:18.803,0.39868,-0.29980,-0.95850;
18:32:18.813,0.36890,-0.26367,-0.94751;
18:32:18.823,0.28125,-0.25928,-0.85181;
18:32:18.833,0.20947,-0.16235,-0.74097;
18:32:18.843,0.20288,-0.16260,-0.74316;
18:32:18.853,0.23706,-0.21191,-0.77881;
18:32:18.863,0.27661,-0.22656,-0.86377;
18:32:18.873,0.29663,-0.16968,-0.94507;
18:32:18.883,0.33081,-0.08423,-1.00781;
18:32:18.893,0.34082,0.01953,-1.08350;
18:32:18.903,0.15527,0.32422,-1.08374;
18:32:18.913,0.12671,0.40723,-1.00146;
18:32:18.923,0.10425,0.48193,-0.98438;
18:32:18.933,0.02368,0.36377,-1.00244;
18:32:18.943,0.01343,0.16260,-0.97925;
18:32:18.953,0.01929,0.07861,-0.93604;
18:32:18.963,0.06030,0.08276,-0.91821;
18:32:18.973,0.15454,0.08813,-0.91992;
18:32:18.983,0.20044,0.08032,-0.95728;
18:32:18.993,0.20435,0.04785,-0.99658;
18:32:19.003,0.17798,0.12598,-1.02832;
18:32:19.013,0.12573,0.19214,-1.07446;
18:32:19.023,0.05884,0.12085,-1.02930;
18:32:19.033,0.06079,0.08789,-0.97681;
18:32:19.043,0.04614,0.04565,-0.93530;
18:32:19.053,0.13989,0.00928,-0.89478;
18:32:19.063,0.24316,0.21899,-0.88818;
18:32:19.073,-0.00146,0.36304,-0.95850;
18:32:19.083,0.05884,0.14941,-0.90747;
18:32:19.093,0.15259,0.10620,-0.87988;
18:32:19.103,0.15137,0.15161,-0.87817;
18:32:19.113,0.09155,0.19922,-0.90698;
18:32:19.123,0.06763,0.22876,-0.93018;
18:32:19.133,0.07520,0.25879,-0.94214;
18:32:19.143,0.06787,0.25269,-0.94922;
18:32:19.153,0.06836,0.29639,-0.95117;
18:32:19.163,0.07715,0.31714,-0.95776;
18:32:19.173,0.07544,0.32617,-0.95947;
18:32:19.183,0.05444,0.30298,-0.97534;
18:32:19.193,0.00391,0.35010,-0.97119;
18:32:19.203,-0.11743,0.41528,-0.97339;
18:32:19.213,-0.08740,0.46704,-0.93335;
18:32:19.223,0.07373,0.51270,-0.84253;
18:32:19.233,0.10474,0.56665,-0.78784;
18:32:19.243,0.04468,0.57568,-0.79443;
18:32:19.253,0.01416,0.54590,-0.79150;
18:32:19.263,-0.01660,0.56201,-0.78394;
18:32:19.273,-0.09326,0.57568,-0.76563;
18:32:19.283,-0.18262,0.70703,-0.77759;
18:32:19.293,-0.12354,0.28345,-0.74487;
18:32:19.303,0.05957,0.40259,-0.76123;
18:32:19.313,0.08203,0.48267,-0.79004;
18:32:19.323,0.03516,0.58057,-0.92163;
18:32:19.333,-0.28076,0.77026,-1.04248;
18:32:19.343,-0.14917,0.71655,-1.04810;
18:32:19.353,-0.10986,0.61621,-1.04517;
18:32:19.363,-0.10498,0.47095,-1.03076;
18:32:19.373,-0.08521,0.31885,-1.01782;
18:32:19.383,-0.05908,0.20752,-1.01758;
18:32:19.393,-0.04663,0.08032,-1.02637;
18:32:19.403,-0.04834,-0.03076,-1.06592;
18:32:19.413,-0.06128,-0.08374,-1.09473;
18:32:19.423,-0.05200,-0.07471,-1.10669;
18:32:19.433,-0.02100,-0.03906,-1.07520;
18:32:19.443,-0.02173,-0.04150,-1.05933;
18:32:19.453,-0.04150,-0.04028,-1.03687;
18:32:19.463,-0.04077,-0.02271,-1.01172;
18:32:19.473,-0.00171,-0.00269,-0.99365;
18:32:19.483,0.01465,0.00537,-0.99268;
18:32:19.493,-0.01172,0.00513,-1.00464;
18:32:19.503,-0.00488,-0.01831,-1.01221;
18:32:19.513,0.04590,-0.05005,-1.02124;
18:32:19.523,0.06470,-0.07202,-1.02808;
18:32:19.533,0.05347,-0.07227,-1.06226;
18:32:19.543,0.03369,-0.06104,-1.08447;
18:32:19.553,-0.00171,-0.03687,-1.10010;
18:32:19.563,-0.08691,-0.03271,-1.06665;
18:32:19.573,-0.32397,-0.04541,-0.89771;
18:32:19.583,-0.04956,0.00415,-0.81860;
18:32:19.593,0.12427,0.05908,-0.96436;
18:32:19.603,0.04736,0.11255,-1.03809;
18:32:19.613,0.05396,0.06714,-1.03882;
18:32:19.623,0.05493,0.12109,-0.99512;
18:32:19.633,0.00781,0.18750,-0.94141;
18:32:19.643,0.05566,0.15576,-0.87646;
18:32:19.653,0.07959,0.14648,-0.85742;
18:32:19.663,0.05762,0.11548,-0.89014;
18:32:19.673,0.04224,0.14673,-0.93091;
18:32:19.683,0.08789,-0.00146,-0.96533;
18:32:19.693,0.11792,-0.12964,-1.00000;
18:32:19.703,0.13354,0.00488,-0.99243;
18:32:19.713,0.30444,-0.27734,-0.97510;
18:32:19.723,0.33594,0.67920,-0.80762;
18:32:19.733,-0.48633,0.60327,-0.97876;
18:32:19.743,0.10718,-0.03491,-0.66064;
18:32:19.753,0.28906,-0.08374,-0.59399;
18:32:19.763,0.07080,-0.00342,-0.71826;
18:32:19.773,0.07275,0.09180,-0.81055;
18:32:19.783,0.17847,0.10498,-0.86011;
18:32:19.793,0.29663,0.16675,-0.93262;
18:32:19.803,0.30835,0.37280,-1.00073;
18:32:19.813,0.25513,0.49219,-1.01978;
18:32:19.823,0.32251,0.53198,-0.97803;
18:32:19.833,0.40405,0.51221,-0.90479;
18:32:19.843,0.41797,0.47681,-0.82251;
18:32:19.853,0.36719,0.51074,-0.61523;
18:32:19.863,0.30054,0.58838,-0.47437;
18:32:19.873,0.24805,0.60669,-0.40747;
18:32:19.883,0.18042,0.60767,-0.35083;
18:32:19.893,0.10840,0.60132,-0.32007;
18:32:19.903,0.04321,0.62378,-0.31665;
18:32:19.913,0.00732,0.71973,-0.30811;
18:32:19.923,-0.01367,0.78442,-0.33838;
18:32:19.933,-0.07007,0.79688,-0.39966;
18:32:19.943,-0.15039,0.79517,-0.43896;
18:32:19.953,-0.25928,0.77759,-0.45801;
18:32:19.963,-0.36206,0.68408,-0.49121;
18:32:19.973,-0.37842,0.60010,-0.54736;
18:32:19.983,-0.35107,0.58936,-0.65234;
18:32:19.993,-0.32788,0.54932,-0.75244;
18:32:20.003,-0.24878,0.47705,-0.82568;
18:32:20.013,-0.25879,0.53223,-0.83374;
18:32:20.023,-0.31274,0.65918,-0.83472;
18:32:20.033,-0.44702,0.78027,-0.78442;
18:32:20.043,-0.47314,0.81055,-0.79736;
18:32:20.053,-0.47534,0.82446,-0.82593;
18:32:20.063,-0.46216,0.83228,-0.88184;
18:32:20.073,-0.43188,0.72803,-0.91479;
18:32:20.083,-0.42627,0.63501,-0.96045;
18:32:20.093,-0.43823,0.55884,-0.99219;
18:32:20.103,-0.42310,0.49292,-1.02393;
18:32:20.113,-0.37891,0.47021,-1.13696;
18:32:20.123,-0.41699,0.55273,-1.17529;
18:32:20.133,-0.35229,0.60010,-1.19336;
18:32:20.143,-0.40649,0.58228,-1.30347;
18:32:20.153,-0.42749,0.54956,-1.39600;
18:32:20.163,-0.39941,0.51343,-1.42871;
18:32:20.173,-0.36499,0.41626,-1.38696;
18:32:20.183,-0.30444,0.30103,-1.32031;
18:32:20.193,-0.27026,0.17310,-1.31494;
18:32:20.203,-0.27393,0.11914,-1.27515;
18:32:20.213,-0.27051,0.15283,-1.16943;
18:32:20.223,-0.24683,0.22388,-1.06812;
18:32:20.233,-0.24194,0.27563,-1.03809;
18:32:20.243,-0.23511,0.28491,-1.06201;
18:32:20.253,-0.18066,0.27637,-1.04834;
18:32:20.263,-0.13330,0.28003,-1.03149;
18:32:20.273,-0.11621,0.28052,-1.00464;
18:32:20.283,-0.08765,0.25659,-0.96851;
18:32:20.293,-0.06274,0.21753,-0.92944;
18:32:20.303,-0.06714,0.20923,-0.89502;
18:32:20.313,-0.07642,0.22705,-0.86206;
18:32:20.323,-0.07227,0.21094,-0.82568;
18:32:20.333,-0.04297,0.20044,-0.80420;
18:32:20.343,-0.04199,0.21509,-0.82178;
18:32:20.353,-0.03906,0.20581,-0.86011;
18:32:20.363,-0.01025,0.17310,-0.89258;
18:32:20.373,-0.01074,0.17700,-0.93433;
18:32:20.383,-0.02905,0.20435,-0.97314;
18:32:20.393,-0.03906,0.21240,-0.99536;
18:32:20.403,-0.04492,0.19214,-1.00952;
18:32:20.413,-0.05811,0.16553,-0.97681;
18:32:20.423,-0.05444,0.20337,-1.01563;
18:32:20.433,-0.06860,0.23291,-1.03735;
18:32:20.443,-0.06421,0.26343,-1.06714;
18:32:20.453,-0.06812,0.26733,-1.07739;
18:32:20.463,-0.08643,0.27148,-1.05005;
18:32:20.473,-0.07104,0.20361,-0.98145;
18:32:20.483,-0.01025,0.09619,-0.86914;
18:32:20.493,0.03125,0.05811,-0.85913;
18:32:20.503,-0.02100,0.13525,-0.93945;
18:32:20.513,-0.04419,0.27612,-1.00195;
18:32:20.523,-0.02954,0.34644,-1.01733;
18:32:20.533,-0.05664,0.20337,-1.07275;
18:32:20.543,-0.06299,0.21753,-1.05933;
18:32:20.553,-0.07764,0.18188,-1.03296;
18:32:20.563,-0.08228,0.14648,-0.99658;
18:32:20.573,-0.08203,0.13232,-0.96851;
18:32:20.583,-0.08862,0.13257,-0.95166;
18:32:20.593,-0.09570,0.14014,-0.94873;
18:32:20.603,-0.08765,0.14819,-0.95337;
18:32:20.613,-0.09399,0.15454,-0.95850;
18:32:20.623,-0.10596,0.17554,-0.95117;
18:32:20.633,-0.11060,0.18359,-0.93677;
18:32:20.643,-0.11230,0.16626,-0.92578;
18:32:20.653,-0.11865,0.16016,-0.91943;
18:32:20.663,-0.12061,0.16724,-0.91870;
18:32:20.673,-0.10889,0.17480,-0.93457;
18:32:20.683,-0.10669,0.18213,-0.98267;
18:32:20.693,-0.11328,0.20288,-0.98315;
18:32:20.703,-0.11938,0.19922,-0.97925;
18:32:20.713,-0.11230,0.18945,-0.96606;
18:32:20.723,-0.10938,0.19189,-0.95850;
18:32:20.733,-0.11743,0.20361,-0.96313;
18:32:20.743,-0.11865,0.21899,-0.97998;
18:32:20.753,-0.12598,0.24438,-0.99316;
18:32:20.763,-0.13062,0.25684,-1.00049;
18:32:20.773,-0.12744,0.25220,-1.00977;
18:32:20.783,-0.11938,0.24536,-1.00537;
18:32:20.793,-0.11279,0.23901,-0.99951;
18:32:20.803,-0.11084,0.23804,-1.00073;
18:32:20.813,-0.10596,0.23682,-0.99756;
18:32:20.823,-0.10132,0.22803,-0.99048;
18:32:20.833,-0.09424,0.22119,-0.97852;
18:32:20.843,-0.09204,0.22241,-0.96606;
18:32:20.853,-0.09009,0.24854,-0.96533;
18:32:20.863,-0.08716,0.26831,-0.96582;
18:32:20.873,-0.08960,0.26660,-0.96924;
18:32:20.883,-0.09180,0.26563,-0.97119;
18:32:20.893,-0.09912,0.26343,-0.96729;
18:32:20.903,-0.10645,0.25732,-0.95825;
18:32:20.913,-0.10962,0.24243,-0.95117;
18:32:20.923,-0.11401,0.23071,-0.94604;
18:32:20.933,-0.11914,0.23096,-0.94238;
18:32:20.943,-0.12695,0.23682,-0.94434;
18:32:20.953,-0.13794,0.23926,-0.94946;
18:32:20.963,-0.14307,0.24170,-0.95728;
18:32:20.973,-0.13745,0.24316,-0.97388;
18:32:20.983,-0.14502,0.28003,-0.98608;
18:32:20.993,-0.14893,0.27271,-0.97729;
18:32:21.003,-0.14404,0.26880,-0.96826;
18:32:21.013,-0.14111,0.26709,-0.95605;
18:32:21.023,-0.13501,0.26660,-0.94800;
18:32:21.033,-0.12280,0.26904,-0.95020;
18:32:21.043,-0.11108,0.27612,-0.96143;
18:32:21.053,-0.10254,0.28174,-0.97119;
18:32:21.063,-0.10156,0.27539,-0.97559;
18:32:21.073,-0.10278,0.27051,-0.97485;
18:32:21.083,-0.10767,0.26538,-0.97095;
18:32:21.093,-0.11304,0.25781,-0.96484;
18:32:21.103,-0.11572,0.25757,-0.95557;
18:32:21.113,-0.11816,0.25415,-0.94995;
18:32:21.123,-0.11499,0.25732,-0.94751;
18:32:21.133,-0.11377,0.26318,-0.94531;
18:32:21.143,-0.11792,0.26392,-0.94312;
18:32:21.153,-0.12231,0.26294,-0.94434;
18:32:21.163,-0.12134,0.26001,-0.94751;
18:32:21.173,-0.12134,0.26953,-0.95752;
18:32:21.183,-0.11987,0.29321,-0.97046;
18:32:21.193,-0.12622,0.30908,-0.97095;
18:32:21.203,-0.12720,0.29858,-0.96606;
18:32:21.213,-0.12280,0.28345,-0.95801;
18:32:21.223,-0.12817,0.28345,-0.95020;
18:32:21.233,-0.12915,0.28271,-0.94678;
18:32:21.243,-0.12842,0.28125,-0.95288;
18:32:21.253,-0.13013,0.29346,-0.96143;
18:32:21.263,-0.13721,0.30884,-0.94971;
18:32:21.273,-0.14624,0.31055,-0.94312;
18:32:21.283,-0.14624,0.31592,-0.94287;
18:32:21.293,-0.14673,0.30688,-0.94507;
18:32:21.303,-0.15063,0.29907,-0.95435;
18:32:21.313,-0.15527,0.29688,-0.95630;
18:32:21.323,-0.16260,0.30078,-0.94873;
18:32:21.333,-0.17065,0.30078,-0.95044;
18:32:21.343,-0.17920,0.29736,-0.94971;
18:32:21.353,-0.17993,0.29810,-0.94238;
18:32:21.363,-0.18701,0.29858,-0.93774;
18:32:21.373,-0.19141,0.30200,-0.93994;
18:32:21.383,-0.19312,0.30200,-0.94189;
18:32:21.393,-0.18872,0.30054,-0.94238;
18:32:21.403,-0.18530,0.29565,-0.94116;
18:32:21.413,-0.18677,0.29053,-0.94141;
18:32:21.423,-0.18481,0.29639,-0.94141;
18:32:21.433,-0.18921,0.30420,-0.93823;
18:32:21.443,-0.19287,0.30444,-0.93018;
18:32:21.453,-0.19165,0.29272,-0.92236;
18:32:21.463,-0.19556,0.28564,-0.92065;
18:32:21.473,-0.19434,0.29272,-0.91528;
18:32:21.483,-0.19922,0.30078,-0.91724;
18:32:21.493,-0.20264,0.30225,-0.92505;
18:32:21.503,-0.19580,0.30444,-0.92627;
18:32:21.513,-0.19604,0.29907,-0.92261;
18:32:21.523,-0.19653,0.29272,-0.92163;
18:32:21.533,-0.20264,0.29883,-0.91577;
18:32:21.543,-0.20752,0.30640,-0.91211;
18:32:21.553,-0.21460,0.31641,-0.91724;
18:32:21.563,-0.21924,0.32813,-0.92188;
18:32:21.573,-0.21704,0.32886,-0.93018;
18:32:21.583,-0.21533,0.33911,-0.93628;
18:32:21.593,-0.21777,0.34814,-0.93286;
18:32:21.603,-0.21948,0.35352,-0.93506;
18:32:21.613,-0.21655,0.35742,-0.93750;
18:32:21.623,-0.21631,0.36206,-0.93628;
18:32:21.633,-0.21265,0.36011,-0.92798;
18:32:21.643,-0.20776,0.34912,-0.92456;
18:32:21.653,-0.19922,0.34375,-0.92822;
18:32:21.663,-0.19897,0.33911,-0.92017;
18:32:21.673,-0.19653,0.32617,-0.91528;
18:32:21.683,-0.19385,0.32056,-0.91431;
18:32:21.693,-0.19531,0.32202,-0.91357;
18:32:21.703,-0.19580,0.32495,-0.91846;
18:32:21.713,-0.19775,0.32422,-0.91528;
18:32:21.723,-0.20142,0.31592,-0.91504;
18:32:21.733,-0.19897,0.31250,-0.91333;
18:32:21.743,-0.19971,0.31592,-0.91431;
18:32:21.753,-0.20337,0.32617,-0.92285;
18:32:21.763,-0.20605,0.33374,-0.92529;
18:32:21.773,-0.20093,0.32837,-0.92480;
18:32:21.783,-0.19775,0.32031,-0.92188;
18:32:21.793,-0.19629,0.32520,-0.92163;
18:32:21.803,-0.20313,0.33276,-0.91724;
18:32:21.813,-0.20752,0.32886,-0.91870;
18:32:21.823,-0.20166,0.32275,-0.91895;
18:32:21.833,-0.20337,0.32690,-0.91748;
18:32:21.843,-0.20117,0.34180,-0.92700;
18:32:21.853,-0.18628,0.33447,-0.92407;
18:32:21.863,-0.18286,0.32715,-0.92041;
18:32:21.873,-0.18164,0.32520,-0.91577;
18:32:21.883,-0.18945,0.33423,-0.92065;
18:32:21.893,-0.19360,0.34375,-0.92041;
18:32:21.903,-0.19873,0.34692,-0.92700;
18:32:21.913,-0.19263,0.33960,-0.92432;
18:32:21.923,-0.18701,0.33374,-0.91895;
18:32:21.933,-0.19312,0.33228,-0.91870;
18:32:21.943,-0.18579,0.34131,-0.92041;
18:32:21.953,-0.18823,0.34668,-0.92627;
18:32:21.963,-0.19678,0.34399,-0.92285;
18:32:21.973,-0.19897,0.34058,-0.92212;
18:32:21.983,-0.19678,0.33276,-0.91895;
18:32:21.993,-0.19702,0.32495,-0.91406;
18:32:22.003,-0.19775,0.32568,-0.91309;
18:32:22.013,-0.19604,0.33130,-0.91187;
18:32:22.023,-0.19531,0.34082,-0.92041;
18:32:22.033,-0.19849,0.35181,-0.92749;
18:32:22.043,-0.19604,0.34961,-0.92651;
18:32:22.053,-0.19092,0.34253,-0.92920;
18:32:22.063,-0.19141,0.33765,-0.92920;
18:32:22.073,-0.19263,0.33789,-0.92529;
18:32:22.083,-0.19263,0.33765,-0.92139;
18:32:22.093,-0.18896,0.33179,-0.92212;
18:32:22.103,-0.19165,0.33032,-0.92529;
18:32:22.113,-0.19165,0.32349,-0.92114;
18:32:22.123,-0.19238,0.31592,-0.91699;
18:32:22.133,-0.19824,0.31738,-0.91528;
18:32:22.143,-0.19849,0.31787,-0.93970;
18:32:22.153,-0.20483,0.31006,-0.95435;
18:32:22.163,-0.20996,0.31299,-0.94800;
18:32:22.173,-0.19824,0.30396,-0.94702;
18:32:22.183,-0.20020,0.29004,-0.95459;
18:32:22.193,-0.21387,0.28296,-0.96167;
18:32:22.203,-0.20557,0.27832,-0.96777;
18:32:22.213,-0.19702,0.27051,-0.96216;
18:32:22.223,-0.19873,0.26172,-0.94482;
18:32:22.233,-0.19531,0.26465,-0.92407;
18:32:22.243,-0.19385,0.27490,-0.91553;
18:32:22.253,-0.19653,0.28979,-0.91772;
18:32:22.263,-0.20264,0.30493,-0.91455;
18:32:22.273,-0.20215,0.30786,-0.90454;
18:32:22.283,-0.22925,0.39551,-0.89209;
18:32:22.293,-0.22900,0.39575,-0.88647;
18:32:22.303,-0.22534,0.39795,-0.87915;
18:32:22.313,-0.22266,0.40405,-0.87500;
18:32:22.323,-0.22461,0.41357,-0.87793;
18:32:22.333,-0.22363,0.42603,-0.88281;
18:32:22.343,-0.22314,0.43506,-0.88525;
18:32:22.353,-0.21948,0.43872,-0.88599;
18:32:22.363,-0.21631,0.44092,-0.88672;
18:32:22.373,-0.20142,0.43481,-0.88989;
18:32:22.383,-0.20239,0.43018,-0.89600;
18:32:22.393,-0.19971,0.42310,-0.88745;
18:32:22.403,-0.19946,0.41919,-0.87695;
18:32:22.413,-0.20093,0.41797,-0.87476;
18:32:22.423,-0.20435,0.42285,-0.87866;
18:32:22.433,-0.20752,0.42627,-0.88208;
18:32:22.443,-0.21118,0.42236,-0.89331;
18:32:22.453,-0.21289,0.40649,-0.90454;
18:32:22.463,-0.21265,0.39087,-0.90552;
18:32:22.473,-0.20532,0.37939,-0.89990;
18:32:22.483,-0.20313,0.36987,-0.89746;
18:32:22.493,-0.20386,0.36157,-0.89600;
18:32:22.503,-0.19751,0.35229,-0.89136;
18:32:22.513,-0.19165,0.34058,-0.89575;
18:32:22.523,-0.18701,0.32739,-0.90210;
18:32:22.533,-0.17676,0.31836,-0.90454;
18:32:22.543,-0.16943,0.31543,-0.91821;
18:32:22.553,-0.16602,0.31885,-0.93872;
18:32:22.563,-0.16626,0.32129,-0.95459;
18:32:22.573,-0.16724,0.32129,-0.95947;
18:32:22.583,-0.16113,0.32056,-0.96582;
18:32:22.593,-0.15430,0.31519,-0.98315;
18:32:22.603,-0.14551,0.30273,-0.99658;
18:32:22.613,-0.14429,0.29492,-0.99780;
18:32:22.623,-0.14844,0.29004,-0.99854;
18:32:22.633,-0.15381,0.28125,-0.99756;
18:32:22.643,-0.15723,0.27905,-0.98926;
18:32:22.653,-0.15479,0.27466,-0.98218;
18:32:22.663,-0.15308,0.27490,-0.96826;
18:32:22.673,-0.16406,0.32568,-0.95215;
18:32:22.683,-0.16479,0.33765,-0.93799;
18:32:22.693,-0.16528,0.34106,-0.92480;
18:32:22.703,-0.17017,0.34814,-0.91626;
18:32:22.713,-0.17822,0.35400,-0.90381;
18:32:22.723,-0.18091,0.35571,-0.89526;
18:32:22.733,-0.18286,0.36304,-0.88843;
18:32:22.743,-0.18506,0.36792,-0.88062;
18:32:22.753,-0.18726,0.38184,-0.88184;
18:32:22.763,-0.19214,0.40161,-0.88330;
18:32:22.773,-0.19629,0.41211,-0.88257;
18:32:22.783,-0.19385,0.41919,-0.88013;
18:32:22.793,-0.19434,0.42090,-0.87891;
18:32:22.803,-0.19482,0.42163,-0.87500;
18:32:22.813,-0.19678,0.43140,-0.87183;
18:32:22.823,-0.19849,0.43872,-0.86572;
18:32:22.833,-0.20166,0.43701,-0.86499;
18:32:22.843,-0.20044,0.43164,-0.86792;
18:32:22.853,-0.19287,0.43115,-0.87744;
18:32:22.863,-0.19287,0.43042,-0.88623;
18:32:22.873,-0.19385,0.42139,-0.88843;
18:32:22.883,-0.19312,0.41113,-0.88940;
18:32:22.893,-0.18994,0.40381,-0.88843;
18:32:22.903,-0.18726,0.39868,-0.89282;
18:32:22.913,-0.18530,0.39624,-0.89478;
18:32:22.923,-0.18286,0.38599,-0.90503;
18:32:22.933,-0.17896,0.37622,-0.91187;
18:32:22.943,-0.17529,0.36719,-0.91162;
18:32:22.953,-0.16943,0.35571,-0.91504;
18:32:22.963,-0.16333,0.35498,-0.91943;
18:32:22.973,-0.16455,0.35913,-0.92456;
18:32:22.983,-0.16846,0.35840,-0.91113;
18:32:22.993,-0.16602,0.36450,-0.92017;
18:32:23.003,-0.16675,0.35400,-0.92822;
18:32:23.013,-0.16284,0.33740,-0.93188;
18:32:23.023,-0.16162,0.33374,-0.93481;
18:32:23.033,-0.16040,0.33740,-0.93652;
18:32:23.043,-0.15918,0.33765,-0.93726;
18:32:23.053,-0.16211,0.33154,-0.93262;
18:32:23.063,-0.15942,0.33447,-0.92700;
18:32:23.073,-0.16089,0.35205,-0.92261;
18:32:23.083,-0.16919,0.37036,-0.92432;
18:32:23.093,-0.17310,0.38135,-0.92822;
18:32:23.103,-0.17285,0.37915,-0.93286;
18:32:23.113,-0.17163,0.36328,-0.93579;
18:32:23.123,-0.16528,0.35474,-0.93555;
18:32:23.133,-0.16699,0.35083,-0.92627;
18:32:23.143,-0.17334,0.35327,-0.91650;
18:32:23.153,-0.17529,0.35938,-0.91235;
18:32:23.163,-0.17188,0.36279,-0.90674;
18:32:23.173,-0.17212,0.36255,-0.90088;
18:32:23.183,-0.17236,0.36743,-0.90088;
18:32:23.193,-0.17432,0.37183,-0.90649;
18:32:23.203,-0.17480,0.37231,-0.91528;
18:32:23.213,-0.17188,0.36938,-0.91846;
18:32:23.223,-0.17334,0.36621,-0.91968;
18:32:23.233,-0.17334,0.36670,-0.91943;
18:32:23.243,-0.17383,0.36572,-0.91357;
18:32:23.253,-0.17383,0.36646,-0.91333;
18:32:23.263,-0.17407,0.36475,-0.90576;
18:32:23.273,-0.16846,0.36743,-0.91455;
18:32:23.283,-0.15967,0.37793,-0.93555;
18:32:23.293,-0.16260,0.38794,-0.93042;
18:32:23.303,-0.16431,0.38452,-0.92285;
18:32:23.313,-0.16260,0.37207,-0.91797;
18:32:23.323,-0.16406,0.36182,-0.91406;
18:32:23.333,-0.16406,0.35547,-0.91626;
18:32:23.343,-0.16553,0.35352,-0.91846;
18:32:23.353,-0.16968,0.35669,-0.92065;
18:32:23.363,-0.17114,0.35620,-0.92236;
18:32:23.373,-0.16943,0.35645,-0.91626;
18:32:23.383,-0.16968,0.35791,-0.90991;
18:32:23.393,-0.16992,0.36108,-0.90356;
18:32:23.403,-0.17261,0.37134,-0.90991;
18:32:23.413,-0.17334,0.36499,-0.91260;
18:32:23.423,-0.16919,0.34131,-0.91113;
18:32:23.433,-0.16016,0.32202,-0.91992;
18:32:23.443,-0.14575,0.31177,-0.93555;
18:32:23.453,-0.14526,0.31421,-0.95044;
18:32:23.463,-0.15063,0.31616,-0.95996;
18:32:23.473,-0.15015,0.32495,-0.96289;
18:32:23.483,-0.14941,0.34497,-0.94849;
18:32:23.493,-0.15308,0.36304,-0.94043;
18:32:23.503,-0.15747,0.36328,-0.93384;
18:32:23.513,-0.15894,0.35181,-0.92822;
18:32:23.523,-0.15820,0.35571,-0.92651;
18:32:23.533,-0.15991,0.36694,-0.91797;
18:32:23.543,-0.16772,0.37134,-0.90674;
18:32:23.553,-0.17212,0.37378,-0.89600;
18:32:23.563,-0.16748,0.36890,-0.92163;
18:32:23.573,-0.16284,0.35498,-0.90942;
18:32:23.583,-0.16431,0.34741,-0.89014;
18:32:23.593,-0.16382,0.35132,-0.87866;
18:32:23.603,-0.16455,0.36108,-0.88062;
18:32:23.613,-0.16382,0.36987,-0.88843;
18:32:23.623,-0.15869,0.36572,-0.90186;
18:32:23.633,-0.15479,0.35791,-0.92212;
18:32:23.643,-0.15112,0.35620,-0.94556;
18:32:23.653,-0.15039,0.36011,-0.96118;
18:32:23.663,-0.15112,0.35547,-0.96558;
18:32:23.673,-0.14746,0.34253,-0.96118;
18:32:23.683,-0.14282,0.33154,-0.95239;
18:32:23.693,-0.13989,0.33154,-0.94531;
18:32:23.703,-0.14282,0.33838,-0.93677;
18:32:23.713,-0.14355,0.34448,-0.91504;
18:32:23.723,-0.14502,0.34204,-0.90283;
18:32:23.733,-0.14136,0.32764,-0.91431;
18:32:23.743,-0.13257,0.31836,-0.93188;
18:32:23.753,-0.12817,0.31738,-0.95142;
18:32:23.763,-0.13013,0.32227,-0.96069;
18:32:23.773,-0.13354,0.32275,-0.96484;
18:32:23.783,-0.13477,0.31812,-0.96143;
18:32:23.793,-0.13184,0.31299,-0.94824;
18:32:23.803,-0.13135,0.31177,-0.94141;
18:32:23.813,-0.13574,0.31323,-0.93604;
18:32:23.823,-0.13818,0.30786,-0.92822;
18:32:23.833,-0.13843,0.30225,-0.93164;
18:32:23.843,-0.13574,0.29956,-0.94067;
18:32:23.853,-0.11768,0.33154,-0.97266;
18:32:23.863,-0.12378,0.35107,-1.00610;
18:32:23.873,-0.12085,0.33228,-1.00513;
18:32:23.883,-0.12695,0.29688,-0.91846;
18:32:23.893,-0.09595,0.20142,-0.90723;
18:32:23.903,-0.06982,0.16113,-0.94897;
18:32:23.913,-0.08032,0.25586,-0.96680;
18:32:23.923,-0.11914,0.34521,-0.95972;
18:32:23.933,-0.14355,0.35303,-0.92603;
18:32:23.943,-0.12549,0.33203,-0.92969;
18:32:23.953,-0.11084,0.34766,-0.95386;
18:32:23.963,-0.12402,0.38599,-1.00488;
18:32:23.973,-0.15527,0.40405,-1.03076;
18:32:23.983,-0.16748,0.38013,-1.03662;
18:32:23.993,-0.15503,0.34546,-1.01538;
18:32:24.003,-0.13892,0.32422,-0.99390;
18:32:24.013,-0.13867,0.31201,-0.97339;
18:32:24.023,-0.14795,0.30811,-0.94409;
18:32:24.033,-0.15405,0.29883,-0.91968;
18:32:24.043,-0.14917,0.28809,-0.89990;
18:32:24.053,-0.14258,0.28198,-0.88989;
18:32:24.063,-0.13916,0.27979,-0.89233;
18:32:24.073,-0.13867,0.28003,-0.89624;
18:32:24.083,-0.14014,0.28125,-0.89429;
18:32:24.093,-0.14868,0.28076,-0.89185;
18:32:24.103,-0.15259,0.27710,-0.89063;
18:32:24.113,-0.15356,0.27515,-0.89160;
18:32:24.123,-0.15894,0.27661,-0.89478;
18:32:24.133,-0.16504,0.28564,-0.90332;
18:32:24.143,-0.17871,0.31152,-0.93506;
18:32:24.153,-0.18042,0.31689,-0.93530;
18:32:24.163,-0.17944,0.31714,-0.93506;
18:32:24.173,-0.17456,0.32666,-0.93774;
18:32:24.183,-0.17310,0.33691,-0.94312;
18:32:24.193,-0.17383,0.33813,-0.95117;
18:32:24.203,-0.17017,0.33398,-0.95239;
18:32:24.213,-0.16431,0.33301,-0.94849;
18:32:24.223,-0.16260,0.33447,-0.94556;
18:32:24.233,-0.16284,0.33398,-0.94238;
18:32:24.243,-0.16211,0.32935,-0.93921;
18:32:24.253,-0.16016,0.32568,-0.93359;
18:32:24.263,-0.15723,0.32007,-0.93311;
18:32:24.273,-0.15698,0.31421,-0.93604;
18:32:24.283,-0.15527,0.30957,-0.93970;
18:32:24.293,-0.15381,0.30493,-0.94312;
18:32:24.303,-0.15601,0.30542,-0.94434;
18:32:24.313,-0.15796,0.30444,-0.94604;
18:32:24.323,-0.15845,0.30786,-0.94775;
18:32:24.333,-0.15967,0.30786,-0.94434;
18:32:24.343,-0.16357,0.30713,-0.94507;
18:32:24.353,-0.16504,0.31250,-0.94385;
18:32:24.363,-0.16675,0.31567,-0.93848;
18:32:24.373,-0.16577,0.31836,-0.94141;
18:32:24.383,-0.16577,0.31567,-0.93555;
18:32:24.393,-0.16846,0.31909,-0.93726;
18:32:24.403,-0.17212,0.32617,-0.93896;
18:32:24.413,-0.17261,0.32227,-0.93506;
18:32:24.423,-0.16919,0.31860,-0.92725;
18:32:24.433,-0.17700,0.33105,-0.91846;
18:32:24.443,-0.17065,0.35620,-0.92114;
18:32:24.453,-0.17114,0.35156,-0.92090;
18:32:24.463,-0.17090,0.34888,-0.91919;
18:32:24.473,-0.17090,0.35034,-0.92212;
18:32:24.483,-0.17676,0.35596,-0.92139;
18:32:24.493,-0.17554,0.36182,-0.91357;
18:32:24.503,-0.17456,0.34570,-0.90381;
18:32:24.513,-0.17407,0.31689,-0.89575;
18:32:24.523,-0.17017,0.29785,-0.89307;
18:32:24.533,-0.16675,0.31372,-0.89941;
18:32:24.543,-0.16724,0.34375,-0.92017;
18:32:24.553,-0.17603,0.34741,-0.93579;
18:32:24.563,-0.17334,0.34180,-0.94678;
18:32:24.573,-0.16553,0.33447,-0.95288;
18:32:24.583,-0.16357,0.32324,-0.95557;
18:32:24.593,-0.16089,0.31470,-0.94995;
18:32:24.603,-0.16382,0.30200,-0.94531;
18:32:24.613,-0.16333,0.28760,-0.94189;
18:32:24.623,-0.15576,0.27954,-0.93848;
18:32:24.633,-0.15137,0.28223,-0.94165;
18:32:24.643,-0.14966,0.28784,-0.95093;
18:32:24.653,-0.14478,0.28906,-0.96167;
18:32:24.663,-0.13989,0.28223,-0.96606;
18:32:24.673,-0.13916,0.27783,-0.97144;
18:32:24.683,-0.13794,0.28345,-0.96826;
18:32:24.693,-0.14111,0.29248,-0.96704;
18:32:24.703,-0.14746,0.31396,-0.96704;
18:32:24.713,-0.15332,0.32275,-0.96118;
18:32:24.723,-0.15527,0.31299,-0.94995;
18:32:24.733,-0.16870,0.33618,-0.93091;
18:32:24.743,-0.17285,0.32104,-0.91235;
18:32:24.753,-0.17358,0.32495,-0.89990;
18:32:24.763,-0.17407,0.33960,-0.90332;
18:32:24.773,-0.17480,0.34888,-0.90649;
18:32:24.783,-0.17627,0.34717,-0.90576;
18:32:24.793,-0.17090,0.34814,-0.91333;
18:32:24.803,-0.16235,0.35522,-0.92358;
18:32:24.813,-0.16309,0.35010,-0.92700;
18:32:24.823,-0.16772,0.33521,-0.92847;
18:32:24.833,-0.16992,0.31982,-0.93066;
18:32:24.843,-0.17383,0.31226,-0.91675;
18:32:24.853,-0.17358,0.30859,-0.89697;
18:32:24.863,-0.16943,0.29956,-0.89160;
18:32:24.873,-0.16187,0.29761,-0.90234;
18:32:24.883,-0.15430,0.31470,-0.91919;
18:32:24.893,-0.15698,0.33496,-0.93652;
18:32:24.903,-0.16016,0.34741,-0.95459;
18:32:24.913,-0.15332,0.33374,-0.96143;
18:32:24.923,-0.14111,0.31079,-0.96753;
18:32:24.933,-0.13647,0.29980,-0.97754;
18:32:24.943,-0.13818,0.29590,-0.98315;
18:32:24.953,-0.13965,0.29565,-0.97705;
18:32:24.963,-0.14380,0.29321,-0.96655;
18:32:24.973,-0.14331,0.29028,-0.94434;
18:32:24.983,-0.13574,0.28247,-0.92700;
18:32:24.993,-0.13306,0.28271,-0.93164;
18:32:25.003,-0.13892,0.29102,-0.93774;
18:32:25.013,-0.14551,0.30151,-0.95117;
18:32:25.023,-0.14575,0.31079,-0.95825;
18:32:25.033,-0.15161,0.29199,-0.94360;
18:32:25.043,-0.14844,0.29492,-0.93579;
18:32:25.053,-0.15259,0.30566,-0.93921;
18:32:25.063,-0.15845,0.30884,-0.94385;
18:32:25.073,-0.15674,0.30469,-0.93506;
18:32:25.083,-0.15234,0.30737,-0.92896;
18:32:25.093,-0.14795,0.31909,-0.94385;
18:32:25.103,-0.14990,0.33032,-0.96143;
18:32:25.113,-0.15015,0.32690,-0.96509;
18:32:25.123,-0.15112,0.31616,-0.95752;
18:32:25.133,-0.14673,0.31421,-0.94995;
18:32:25.143,-0.14136,0.31812,-0.95483;
18:32:25.153,-0.14282,0.31519,-0.96069;
18:32:25.163,-0.14502,0.29517,-0.94751;
18:32:25.173,-0.13525,0.24609,-0.90527;
18:32:25.183,-0.10327,0.18579,-0.88013;
18:32:25.193,-0.09985,0.21265,-0.91919;
18:32:25.203,-0.13501,0.32593,-0.94263;
18:32:25.213,-0.16602,0.38501,-0.93066;
18:32:25.223,-0.16040,0.37061,-0.91797;
18:32:25.233,-0.13794,0.34424,-0.95044;
18:32:25.243,-0.14551,0.33960,-1.01318;
18:32:25.253,-0.16089,0.33545,-1.02295;
18:32:25.263,-0.16040,0.32446,-1.00122;
18:32:25.273,-0.15698,0.31152,-0.96753;
18:32:25.283,-0.15381,0.30591,-0.93628;
18:32:25.293,-0.15088,0.30688,-0.91870;
18:32:25.303,-0.15088,0.29761,-0.90454;
18:32:25.313,-0.14697,0.27637,-0.89673;
18:32:25.323,-0.15723,0.27002,-0.89429;
18:32:25.333,-0.15918,0.27222,-0.89771;
18:32:25.343,-0.16553,0.28296,-0.90454;
18:32:25.353,-0.17407,0.28882,-0.91406;
18:32:25.363,-0.17578,0.29736,-0.92065;
18:32:25.373,-0.18091,0.31494,-0.92773;
18:32:25.383,-0.18896,0.33643,-0.92969;
18:32:25.393,-0.19458,0.34937,-0.93506;
18:32:25.403,-0.19653,0.34644,-0.93823;
18:32:25.413,-0.19141,0.33301,-0.93433;
18:32:25.423,-0.18335,0.30957,-0.93433;
18:32:25.433,-0.17236,0.29761,-0.93481;
18:32:25.443,-0.16772,0.31982,-0.93506;
18:32:25.453,-0.16895,0.35596,-0.93530;
18:32:25.463,-0.17578,0.37939,-0.93555;
18:32:25.473,-0.18604,0.38770,-0.93433;
18:32:25.483,-0.18530,0.38452,-0.92725;
18:32:25.493,-0.17969,0.36426,-0.91797;
18:32:25.503,-0.17554,0.34229,-0.91675;
18:32:25.513,-0.17188,0.33398,-0.91577;
18:32:25.523,-0.17163,0.32861,-0.91089;
18:32:25.533,-0.17529,0.32104,-0.90942;
18:32:25.543,-0.17603,0.31665,-0.90503;
18:32:25.553,-0.17236,0.32617,-0.90283;
18:32:25.563,-0.17310,0.32764,-0.92188;
18:32:25.573,-0.17163,0.29932,-0.94995;
18:32:25.583,-0.16357,0.27954,-0.96826;
18:32:25.593,-0.15503,0.28979,-0.96655;
18:32:25.603,-0.16211,0.31836,-0.92627;
18:32:25.613,-0.18018,0.31494,-0.93823;
18:32:25.623,-0.16724,0.30518,-0.93750;
18:32:25.633,-0.17505,0.33472,-0.92456;
18:32:25.643,-0.18604,0.36060,-0.91699;
18:32:25.653,-0.18823,0.35059,-0.91870;
18:32:25.663,-0.17993,0.30884,-0.91602;
18:32:25.673,-0.16528,0.28687,-0.90918;
18:32:25.683,-0.16040,0.30811,-0.90991;
18:32:25.693,-0.17041,0.34253,-0.91602;
18:32:25.703,-0.17871,0.35205,-0.92749;
18:32:25.713,-0.17285,0.33276,-0.94214;
18:32:25.723,-0.15869,0.31665,-0.95166;
18:32:25.733,-0.15479,0.31299,-0.95508;
18:32:25.743,-0.16309,0.31763,-0.95581;
18:32:25.753,-0.16284,0.30811,-0.95898;
18:32:25.763,-0.16040,0.29810,-0.95142;
18:32:25.773,-0.15747,0.30908,-0.93384;
18:32:25.783,-0.15796,0.33350,-0.91724;
18:32:25.793,-0.16455,0.34692,-0.91504;
18:32:25.803,-0.16650,0.33374,-0.92578;
18:32:25.813,-0.16064,0.31689,-0.93164;
18:32:25.823,-0.15381,0.29932,-0.93042;
18:32:25.833,-0.15332,0.29810,-0.92212;
18:32:25.843,-0.15527,0.31177,-0.92798;
18:32:25.853,-0.16138,0.32080,-0.94067;
18:32:25.863,-0.16382,0.32251,-0.95142;
18:32:25.873,-0.16309,0.31372,-0.95898;
18:32:25.883,-0.16162,0.30566,-0.95679;
18:32:25.893,-0.15967,0.30322,-0.95654;
18:32:25.903,-0.15698,0.30200,-0.94629;
18:32:25.913,-0.15698,0.29688,-0.93481;
18:32:25.923,-0.15625,0.29443,-0.93750;
18:32:25.933,-0.15356,0.29517,-0.94067;
18:32:25.943,-0.14990,0.30640,-0.95264;
18:32:25.953,-0.14697,0.31177,-0.95605;
18:32:25.963,-0.14233,0.30518,-0.95654;
18:32:25.973,-0.14063,0.29736,-0.93823;
18:32:25.983,-0.13623,0.28076,-0.93970;
18:32:25.993,-0.13525,0.28125,-0.95825;
18:32:26.003,-0.13818,0.31470,-0.95337;
18:32:26.013,-0.14819,0.34497,-0.94507;
18:32:26.023,-0.15649,0.33862,-0.94287;
18:32:26.033,-0.15039,0.32983,-0.94946;
18:32:26.043,-0.15308,0.33594,-0.95142;
18:32:26.053,-0.16284,0.32324,-0.95361;
18:32:26.063,-0.16797,0.29688,-0.95435;
18:32:26.073,-0.16382,0.28589,-0.95142;
18:32:26.083,-0.15723,0.29077,-0.94922;
18:32:26.093,-0.15942,0.29468,-0.94946;
18:32:26.103,-0.15649,0.29590,-0.95068;
18:32:26.113,-0.14844,0.29272,-0.94604;
18:32:26.123,-0.14893,0.29272,-0.93066;
18:32:26.133,-0.14673,0.28687,-0.91699;
18:32:26.143,-0.14185,0.28027,-0.90698;
18:32:26.153,-0.13940,0.27856,-0.90112;
18:32:26.163,-0.13379,0.27368,-0.88403;
18:32:26.173,-0.12402,0.26587,-0.90723;
18:32:26.183,-0.12842,0.29053,-0.94775;
18:32:26.193,-0.15479,0.34351,-0.97144;
18:32:26.203,-0.16187,0.34424,-0.96753;
18:32:26.213,-0.16943,0.33716,-0.96387;
18:32:26.223,-0.17017,0.32007,-0.96509;
18:32:26.233,-0.16479,0.31128,-0.95898;
18:32:26.243,-0.16333,0.30420,-0.95898;
18:32:26.253,-0.16040,0.29810,-0.95801;
18:32:26.263,-0.15503,0.29126,-0.94263;
18:32:26.273,-0.15234,0.28223,-0.92114;
18:32:26.283,-0.14429,0.27344,-0.91162;
18:32:26.293,-0.13208,0.26807,-0.91406;
18:32:26.303,-0.12671,0.26489,-0.91797;
18:32:26.313,-0.12476,0.25977,-0.90576;
18:32:26.323,-0.11353,0.25073,-0.91260;
18:32:26.333,-0.11597,0.26514,-0.95239;
18:32:26.343,-0.12744,0.30859,-0.97925;
18:32:26.353,-0.13940,0.33667,-0.98022;
18:32:26.363,-0.15259,0.32983,-0.97510;
18:32:26.373,-0.15210,0.32349,-0.97778;
18:32:26.383,-0.15747,0.33228,-0.97705;
18:32:26.393,-0.16626,0.32715,-0.97583;
18:32:26.403,-0.16943,0.31055,-0.97192;
18:32:26.413,-0.12793,0.26538,-0.91260;
18:32:26.423,-0.12817,0.26880,-0.94873;
18:32:26.433,-0.13403,0.32300,-0.97021;
18:32:26.443,-0.14722,0.32788,-0.96826;
18:32:26.453,-0.14941,0.32300,-0.97241;
18:32:26.463,-0.15332,0.34546,-0.96948;
18:32:26.473,-0.16357,0.35449,-0.96729;
18:32:26.483,-0.16992,0.32935,-0.96582;
18:32:26.493,-0.16333,0.30859,-0.95850;
18:32:26.503,-0.15552,0.30591,-0.95215;
18:32:26.513,-0.15845,0.30566,-0.94263;
18:32:26.523,-0.16016,0.29932,-0.93726;
18:32:26.533,-0.15259,0.29224,-0.93018;
18:32:26.543,-0.14648,0.28491,-0.92505;
18:32:26.553,-0.14551,0.27734,-0.91602;
18:32:26.563,-0.14014,0.27100,-0.91382;
18:32:26.573,-0.13281,0.26685,-0.91895;
18:32:26.583,-0.13184,0.27026,-0.92188;
18:32:26.593,-0.13379,0.27295,-0.91064;
18:32:26.603,-0.12598,0.26831,-0.91504;
18:32:26.613,-0.12524,0.27612,-0.95776;
18:32:26.623,-0.12866,0.31177,-0.98291;
18:32:26.633,-0.14087,0.33984,-0.98267;
18:32:26.643,-0.15674,0.33545,-0.98706;
18:32:26.653,-0.15405,0.32471,-0.98291;
18:32:26.663,-0.15527,0.33179,-0.96387;
18:32:26.673,-0.16138,0.33179,-0.95166;
18:32:26.683,-0.16699,0.31421,-0.94897;
18:32:26.693,-0.16406,0.30273,-0.95239;
18:32:26.703,-0.15552,0.29858,-0.95020;
18:32:26.713,-0.15161,0.28687,-0.93677;
18:32:26.723,-0.14478,0.27319,-0.91431;
18:32:26.733,-0.14014,0.27124,-0.91504;
18:32:26.743,-0.13794,0.26685,-0.90991;
18:32:26.753,-0.13281,0.26196,-0.90845;
18:32:26.763,-0.12891,0.27393,-0.90796;
18:32:26.773,-0.12085,0.28809,-0.92676;
18:32:26.783,-0.12988,0.29346,-0.96924;
18:32:26.793,-0.13623,0.29639,-0.99927;
18:32:26.803,-0.13965,0.30005,-0.99951;
18:32:26.813,-0.15112,0.31812,-0.99316;
18:32:26.823,-0.15942,0.34009,-0.99683;
18:32:26.833,-0.17261,0.33984,-0.99365;
18:32:26.843,-0.17651,0.32324,-0.99292;
18:32:26.853,-0.19019,0.29761,-1.01294;
18:32:26.863,-0.20093,0.28174,-1.05713;
18:32:26.873,-0.20654,0.29346,-1.09521;
18:32:26.883,-0.21240,0.30444,-1.11572;
18:32:26.893,-0.22241,0.30957,-1.11353;
18:32:26.903,-0.23779,0.30859,-1.09790;
18:32:26.913,-0.26611,0.29346,-1.09473;
18:32:26.923,-0.28418,0.27979,-1.09717;
18:32:26.933,-0.27783,0.27319,-1.09985;
18:32:26.943,-0.25659,0.25928,-1.09692;
18:32:26.953,-0.24805,0.23291,-1.10229;
18:32:26.963,-0.26538,0.18774,-1.11279;
18:32:26.973,-0.25708,0.15039,-1.10913;
18:32:26.983,-0.25342,0.13086,-1.11206;
18:32:26.993,-0.23389,0.10425,-1.09912;
18:32:27.003,-0.23169,0.08496,-1.08984;
18:32:27.013,-0.27051,-0.05493,-1.05859;
18:32:27.023,-0.32910,-0.09717,-1.08398;
18:32:27.033,-0.32202,-0.12793,-1.10400;
18:32:27.043,-0.31348,-0.17407,-1.11206;
18:32:27.053,-0.34009,-0.22900,-1.09790;
18:32:27.063,-0.34790,-0.34424,-1.04712;
18:32:27.073,-0.35815,-0.45313,-0.98779;
18:32:27.083,-0.38379,-0.50195,-0.95825;
18:32:27.093,-0.40625,-0.52661,-0.93237;
18:32:27.103,-0.47046,-0.58154,-0.91577;
18:32:27.113,-0.49316,-0.62012,-0.88501;
18:32:27.123,-0.45947,-0.62451,-0.85132;
18:32:27.133,-0.43433,-0.62158,-0.81421;
18:32:27.143,-0.40308,-0.60742,-0.79614;
18:32:27.153,-0.36768,-0.59253,-0.77930;
18:32:27.163,-0.33569,-0.55713,-0.76465;
18:32:27.173,-0.30176,-0.51440,-0.74609;
18:32:27.183,-0.24487,-0.48486,-0.72241;
18:32:27.193,-0.16553,-0.45874,-0.71338;
18:32:27.203,-0.09058,-0.43652,-0.70068;
18:32:27.213,-0.00708,-0.40210,-0.69165;
18:32:27.223,0.07666,-0.36401,-0.66895;
18:32:27.233,0.15088,-0.32495,-0.66162;
18:32:27.243,0.24585,-0.23413,-0.68384;
18:32:27.253,0.33813,-0.13428,-0.74121;
18:32:27.263,0.44312,-0.00952,-0.80811;
18:32:27.273,0.54004,0.12280,-0.87085;
18:32:27.283,0.61157,0.19385,-0.91602;
18:32:27.293,0.69580,0.14209,-0.95923;
18:32:27.303,0.82422,0.12646,-0.95898;
18:32:27.313,0.81543,0.21997,-1.00806;
18:32:27.323,0.81299,0.24609,-0.97241;
18:32:27.333,0.75562,0.24780,-0.95532;
18:32:27.343,0.65967,0.21118,-0.93457;
18:32:27.353,0.58594,0.16357,-0.90869;
18:32:27.363,0.54834,0.11865,-0.89941;
18:32:27.373,0.54614,0.05566,-0.90894;
18:32:27.383,0.55249,-0.02686,-0.91772;
18:32:27.393,0.54932,-0.10205,-0.92871;
18:32:27.403,0.55273,-0.15625,-0.92285;
18:32:27.413,0.53638,-0.20703,-0.91504;
18:32:27.423,0.48315,-0.26855,-0.90723;
18:32:27.433,0.43042,-0.30127,-0.90161;
18:32:27.443,0.39697,-0.33691,-0.89917;
18:32:27.453,0.38159,-0.39990,-0.88330;
18:32:27.463,0.36597,-0.45166,-0.85474;
18:32:27.473,0.36353,-0.48584,-0.85864;
18:32:27.483,0.38916,-0.51074,-0.90918;
18:32:27.493,0.38599,-0.49048,-0.91455;
18:32:27.503,0.34717,-0.48828,-0.93042;
18:32:27.513,0.29663,-0.53857,-0.93872;
18:32:27.523,0.27930,-0.58350,-0.90967;
18:32:27.533,0.27075,-0.61938,-0.93335;
18:32:27.543,0.27661,-0.62061,-0.95264;
18:32:27.553,0.30957,-0.58838,-0.91748;
18:32:27.563,0.28076,-0.60083,-0.90112;
18:32:27.573,0.25586,-0.67188,-0.88184;
18:32:27.583,0.22778,-0.74487,-0.89697;
18:32:27.593,0.21045,-0.55371,-0.89746;
18:32:27.603,0.24243,-0.48193,-0.90601;
18:32:27.613,0.25806,-0.44922,-0.89844;
18:32:27.623,0.24634,-0.44238,-0.92041;
18:32:27.633,0.25342,-0.43359,-0.94116;
18:32:27.643,0.27441,-0.42822,-0.96240;
18:32:27.653,0.29614,-0.39380,-0.98315;
18:32:27.663,0.31641,-0.34912,-0.98364;
18:32:27.673,0.30200,-0.31641,-0.99756;
18:32:27.683,0.30103,-0.24829,-1.00293;
18:32:27.693,0.29419,-0.20947,-0.99146;
18:32:27.703,0.27515,-0.18994,-0.98804;
18:32:27.713,0.27686,-0.17334,-0.98926;
18:32:27.723,0.30151,-0.19409,-1.04639;
18:32:27.733,0.28003,-0.18823,-0.99658;
18:32:27.743,0.27002,-0.13550,-0.95508;
18:32:27.753,0.27368,-0.20435,-0.98560;
18:32:27.763,0.28760,-0.25757,-0.97827;
18:32:27.773,0.31519,-0.24951,-0.98413;
18:32:27.783,0.31421,-0.28467,-0.97314;
18:32:27.793,0.58984,-0.27588,-0.75610;
18:32:27.803,0.41846,-0.35278,-0.71875;
18:32:27.813,-0.21777,-0.35938,-1.10645;
18:32:27.823,0.48950,-0.24048,-0.95459;
18:32:27.833,0.33765,-0.06470,-1.00098;
18:32:27.843,0.23486,-0.10278,-1.04370;
18:32:27.853,0.35352,-0.22656,-0.93799;
18:32:27.863,0.28613,-0.17969,-0.89209;
18:32:27.873,0.26831,-0.11084,-0.89648;
18:32:27.883,0.26807,-0.15405,-0.91016;
18:32:27.893,0.26953,-0.19897,-0.92480;
18:32:27.903,0.30420,-0.18188,-0.92334;
18:32:27.913,0.32129,-0.13184,-0.92822;
18:32:27.923,0.31055,-0.19946,-0.93433;
18:32:27.933,0.33643,-0.24023,-0.93042;
18:32:27.943,0.33081,-0.22632,-0.95142;
18:32:27.953,0.31299,-0.23291,-0.96558;
18:32:27.963,0.32739,-0.22290,-0.96509;
18:32:27.973,0.33398,-0.25195,-0.95313;
18:32:27.983,0.34326,-0.24756,-0.95679;
18:32:27.993,0.31152,-0.10913,-0.97754;
18:32:28.003,0.29980,-0.00879,-0.98560;
18:32:28.013,0.30957,-0.04541,-0.97925;
18:32:28.023,0.31714,-0.07520,-0.97461;
18:32:28.033,0.30640,-0.07983,-0.97437;
18:32:28.043,0.25781,-0.02954,-1.00098;
18:32:28.053,0.26831,-0.04224,-0.98999;
18:32:28.063,0.33374,-0.16724,-0.92700;
18:32:28.073,0.33325,-0.24170,-0.93481;
18:32:28.083,0.30859,-0.23633,-0.94556;
18:32:28.093,0.29980,-0.19653,-0.94141;
18:32:28.103,0.28003,-0.17358,-0.95605;
18:32:28.113,0.27026,-0.18188,-0.95605;
18:32:28.123,0.27515,-0.19263,-0.96094;
18:32:28.133,0.27954,-0.19336,-0.96875;
18:32:28.143,0.28003,-0.18677,-0.98315;
18:32:28.153,0.28369,-0.18823,-0.98242;
18:32:28.163,0.27954,-0.21362,-0.95776;
18:32:28.173,0.26978,-0.20166,-0.94531;
18:32:28.183,0.26538,-0.17383,-0.94678;
18:32:28.193,0.26587,-0.14111,-0.94482;
18:32:28.203,0.26025,-0.09351,-0.95215;
18:32:28.213,0.23584,-0.05396,-0.95630;
18:32:28.223,0.41528,0.35962,-0.78955;
18:32:28.233,0.31616,-0.11841,-0.83936;
18:32:28.243,0.20410,-0.45435,-0.94800;
18:32:28.253,0.26392,-0.35620,-1.02222;
18:32:28.263,0.30786,-0.28247,-1.01831;
18:32:28.273,0.29834,-0.35107,-1.02734;
18:32:28.283,0.28784,-0.28760,-1.01294;
18:32:28.293,0.25415,-0.25659,-0.96216;
18:32:28.303,0.25146,-0.20703,-0.94824;
18:32:28.313,0.20142,-0.22705,-0.92822;
18:32:28.323,0.16626,-0.41333,-0.87793;
18:32:28.333,0.28223,-0.22534,-0.94043;
18:32:28.343,0.19727,-0.02393,-0.97021;
18:32:28.353,0.16089,-0.11548,-0.95068;
18:32:28.363,0.22363,-0.19043,-0.96265;
18:32:28.373,0.17358,-0.23779,-0.95483;
18:32:28.383,0.20630,-0.25879,-0.95850;
18:32:28.393,0.23486,-0.32764,-0.93384;
18:32:28.403,0.24023,-0.37378,-0.92944;
18:32:28.413,0.24097,-0.40356,-0.91382;
18:32:28.423,0.24292,-0.40039,-0.90869;
18:32:28.433,0.22534,-0.36523,-0.92334;
18:32:28.443,0.23755,-0.33545,-0.95801;
18:32:28.453,0.25195,-0.36377,-0.95703;
18:32:28.463,0.18726,-0.32202,-0.96851;
18:32:28.473,0.21167,-0.32056,-0.95410;
18:32:28.483,0.23315,-0.33374,-0.94385;
18:32:28.493,0.19434,-0.29370,-0.94409;
18:32:28.503,0.21216,-0.27808,-0.92676;
18:32:28.513,0.20337,-0.27173,-0.91211;
18:32:28.523,0.20776,-0.28027,-0.89307;
18:32:28.533,0.20874,-0.32202,-0.88843;
18:32:28.543,0.22705,-0.37671,-0.88184;
18:32:28.553,0.24902,-0.42212,-0.87524;
18:32:28.563,0.23486,-0.43994,-0.87793;
18:32:28.573,0.21997,-0.44434,-0.88892;
18:32:28.583,0.22266,-0.42334,-0.90454;
18:32:28.593,0.21655,-0.36426,-0.93579;
18:32:28.603,0.21729,-0.32300,-0.96216;
18:32:28.613,0.21997,-0.32227,-0.97095;
18:32:28.623,0.23315,-0.34912,-0.97266;
18:32:28.633,0.25024,-0.36157,-0.96875;
18:32:28.643,0.26245,-0.36621,-0.96582;
18:32:28.653,0.23608,-0.35376,-0.96216;
18:32:28.663,0.21191,-0.33057,-0.95288;
18:32:28.673,0.20679,-0.31274,-0.94556;
18:32:28.683,0.19873,-0.29224,-0.94067;
18:32:28.693,0.20435,-0.28003,-0.93652;
18:32:28.703,0.21362,-0.28223,-0.93506;
18:32:28.713,0.21606,-0.28564,-0.93799;
18:32:28.723,0.22095,-0.29419,-0.94189;
18:32:28.733,0.21973,-0.29443,-0.94751;
18:32:28.743,0.22363,-0.29736,-0.94897;
18:32:28.753,0.22168,-0.29663,-0.94995;
18:32:28.763,0.22437,-0.29395,-0.94775;
18:32:28.773,0.21729,-0.29077,-0.95044;
18:32:28.783,0.20972,-0.28735,-0.95239;
18:32:28.793,0.21094,-0.28198,-0.94922;
18:32:28.803,0.20459,-0.27441,-0.94995;
18:32:28.813,0.19849,-0.26538,-0.95166;
18:32:28.823,0.19336,-0.25854,-0.95068;
18:32:28.833,0.19043,-0.25732,-0.95386;
18:32:28.843,0.19067,-0.24463,-0.95581;
18:32:28.853,0.19043,-0.24243,-0.95825;
18:32:28.863,0.19458,-0.24829,-0.96094;
18:32:28.873,0.19360,-0.23438,-0.96094;
18:32:28.883,0.17651,-0.24219,-0.96509;
18:32:28.893,0.17554,-0.23096,-0.96851;
18:32:28.903,0.16260,-0.24878,-0.96191;
18:32:28.913,0.16162,-0.26050,-0.96265;
18:32:28.923,0.17114,-0.23315,-0.95996;
18:32:28.933,0.16431,-0.23975,-0.95874;
18:32:28.943,0.17261,-0.23999,-0.96338;
18:32:28.953,0.16577,-0.23389,-0.96680;
18:32:28.963,0.16040,-0.22827,-0.97510;
18:32:28.973,0.16016,-0.22778,-0.97681;
18:32:28.983,0.16162,-0.22412,-0.97998;
18:32:28.993,0.16406,-0.22412,-0.97827;
18:32:29.003,0.16309,-0.22900,-0.97803;
18:32:29.013,0.16455,-0.22607,-0.97778;
18:32:29.023,0.16064,-0.22485,-0.96948;
18:32:29.033,0.15649,-0.22510,-0.97070;
18:32:29.043,0.14868,-0.22559,-0.97852;
18:32:29.053,0.15015,-0.24927,-0.97754;
18:32:29.063,0.14819,-0.25391,-0.97461;
18:32:29.073,0.14526,-0.24365,-0.97021;
18:32:29.083,0.14136,-0.23389,-0.96851;
18:32:29.093,0.13940,-0.22876,-0.97412;
18:32:29.103,0.13379,-0.22632,-0.97876;
18:32:29.113,0.13379,-0.21997,-0.97974;
18:32:29.123,0.14160,-0.21167,-0.97803;
18:32:29.133,0.14429,-0.20923,-0.97485;
18:32:29.143,0.14380,-0.19922,-0.97656;
18:32:29.153,0.14575,-0.19019,-0.97876;
18:32:29.163,0.14844,-0.18506,-0.98096;
18:32:29.173,0.14478,-0.18530,-0.98706;
18:32:29.183,0.13965,-0.19263,-0.99243;
18:32:29.193,0.13940,-0.18726,-0.99048;
18:32:29.203,0.14014,-0.18848,-0.98950;
18:32:29.213,0.14307,-0.19434,-0.98926;
18:32:29.223,0.14600,-0.19189,-0.98291;
18:32:29.233,0.14844,-0.19019,-0.97900;
18:32:29.243,0.14844,-0.18848,-0.98730;
18:32:29.253,0.14868,-0.18896,-0.98828;
18:32:29.263,0.15063,-0.19922,-0.98315;
18:32:29.273,0.15381,-0.20874,-0.98511;
18:32:29.283,0.15283,-0.21191,-0.98291;
18:32:29.293,0.15234,-0.20923,-0.98340;
18:32:29.303,0.15283,-0.20215,-0.98315;
18:32:29.313,0.15332,-0.19116,-0.98340;
18:32:29.323,0.15723,-0.19385,-0.98462;
18:32:29.333,0.16992,-0.20361,-0.98096;
18:32:29.343,0.16333,-0.20142,-0.97339;
18:32:29.353,0.16479,-0.20605,-0.97046;
18:32:29.363,0.16357,-0.20996,-0.96899;
18:32:29.373,0.16138,-0.20532,-0.96240;
18:32:29.383,0.15845,-0.19775,-0.96704;
18:32:29.393,0.15723,-0.19458,-0.96802;
18:32:29.403,0.15869,-0.19604,-0.97046;
18:32:29.413,0.15698,-0.19849,-0.97852;
18:32:29.423,0.15796,-0.20020,-0.97998;
18:32:29.433,0.16284,-0.20459,-0.98315;
18:32:29.443,0.16895,-0.21191,-0.98340;
18:32:29.453,0.17578,-0.21094,-0.97998;
18:32:29.463,0.17334,-0.20410,-0.98315;
18:32:29.473,0.16333,-0.19189,-0.99023;
18:32:29.483,0.15894,-0.18433,-0.99268;
18:32:29.493,0.16064,-0.18701,-0.99585;
18:32:29.503,0.15845,-0.18677,-0.99902;
18:32:29.513,0.15820,-0.18604,-0.99878;
18:32:29.523,0.16211,-0.18994,-1.00366;
18:32:29.533,0.16650,-0.19214,-1.00146;
18:32:29.543,0.17163,-0.19263,-0.99438;
18:32:29.553,0.16968,-0.19116,-0.99658;
18:32:29.563,0.17065,-0.18921,-0.99561;
18:32:29.573,0.17188,-0.19312,-0.99268;
18:32:29.583,0.17090,-0.19043,-0.99707;
18:32:29.593,0.17163,-0.18555,-1.00391;
18:32:29.603,0.17749,-0.18848,-1.00073;
18:32:29.613,0.17896,-0.18579,-1.00073;
18:32:29.623,0.18628,-0.18555,-0.98706;
18:32:29.633,0.17993,-0.20386,-0.97803;
18:32:29.643,0.17676,-0.21973,-0.98242;
18:32:29.653,0.17944,-0.22021,-0.97754;
18:32:29.663,0.17651,-0.22095,-0.96826;
18:32:29.673,0.16553,-0.21851,-0.97192;
18:32:29.683,0.16064,-0.22754,-0.97070;
18:32:29.693,0.16187,-0.24707,-0.97339;
18:32:29.703,0.15967,-0.26953,-0.96411;
18:32:29.713,0.15820,-0.28101,-0.95288;
18:32:29.723,0.15552,-0.28833,-0.93921;
18:32:29.733,0.15405,-0.29541,-0.93506;
18:32:29.743,0.15283,-0.29907,-0.93457;
18:32:29.753,0.14990,-0.30005,-0.93188;
18:32:29.763,0.14819,-0.29785,-0.93530;
18:32:29.773,0.14697,-0.29614,-0.94067;
18:32:29.783,0.14624,-0.29834,-0.94165;
18:32:29.793,0.14551,-0.30151,-0.93994;
18:32:29.803,0.14307,-0.30640,-0.94092;
18:32:29.813,0.13672,-0.31323,-0.94116;
18:32:29.823,0.13647,-0.30835,-0.94043;
18:32:29.833,0.13818,-0.30884,-0.94141;
18:32:29.843,0.14014,-0.30884,-0.94360;
18:32:29.853,0.14014,-0.30200,-0.94263;
18:32:29.863,0.13647,-0.31104,-0.94116;
18:32:29.873,0.13623,-0.32251,-0.94165;
18:32:29.883,0.13672,-0.33350,-0.94385;
18:32:29.893,0.13843,-0.33813,-0.94556;
18:32:29.903,0.13745,-0.34180,-0.94751;
18:32:29.913,0.13892,-0.33740,-0.95068;
18:32:29.923,0.13843,-0.33447,-0.94458;
18:32:29.933,0.13623,-0.31787,-0.95093;
18:32:29.943,0.13550,-0.31201,-0.95654;
18:32:29.953,0.13745,-0.30444,-0.95752;
18:32:29.963,0.13989,-0.30298,-0.96216;
18:32:29.973,0.14087,-0.30127,-0.95776;
18:32:29.983,0.13770,-0.30127,-0.96118;
18:32:29.993,0.13916,-0.30225,-0.96558;
18:32:30.003,0.13989,-0.30176,-0.96387;
18:32:30.013,0.13818,-0.30029,-0.96240;
18:32:30.023,0.13916,-0.30103,-0.96313;
18:32:30.033,0.13721,-0.30835,-0.95972;
18:32:30.043,0.13672,-0.31494,-0.95850;
18:32:30.053,0.13696,-0.31592,-0.95386;
18:32:30.063,0.13672,-0.31079,-0.95068;
18:32:30.073,0.13477,-0.30371,-0.95215;
18:32:30.083,0.13281,-0.30078,-0.94971;
18:32:30.093,0.13110,-0.29858,-0.94604;
18:32:30.103,0.12988,-0.29980,-0.93774;
18:32:30.113,0.12549,-0.30371,-0.93262;
18:32:30.123,0.11597,-0.30493,-0.93066;
18:32:30.133,0.10791,-0.30908,-0.93091;
18:32:30.143,0.10449,-0.30640,-0.93018;
18:32:30.153,0.10010,-0.30811,-0.93823;
18:32:30.163,0.11572,-0.32129,-0.94678;
18:32:30.173,0.13452,-0.33301,-0.95044;
18:32:30.183,0.14746,-0.33765,-0.95581;
18:32:30.193,0.16382,-0.33667,-0.96265;
18:32:30.203,0.17627,-0.33130,-0.97095;
18:32:30.213,0.19507,-0.31958,-0.97485;
18:32:30.223,0.20874,-0.30859,-0.97266;
18:32:30.233,0.24829,-0.38745,-0.93091;
18:32:30.243,0.37500,-0.20850,-0.91577;
18:32:30.253,0.37598,-0.12988,-0.93140;
18:32:30.263,0.34033,-0.13086,-0.95190;
18:32:30.273,0.35132,-0.14526,-0.95703;
18:32:30.283,0.37866,-0.15454,-0.96997;
18:32:30.293,0.39478,-0.16211,-0.98511;
18:32:30.303,0.39136,-0.17090,-1.00342;
18:32:30.313,0.39014,-0.17407,-1.02588;
18:32:30.323,0.38623,-0.18555,-1.03882;
18:32:30.333,0.37939,-0.18530,-1.03711;
18:32:30.343,0.37793,-0.18701,-1.02856;
18:32:30.353,0.37524,-0.20166,-1.01465;
18:32:30.363,0.37256,-0.21997,-0.99829;
18:32:30.373,0.36694,-0.23169,-0.98950;
18:32:30.383,0.35718,-0.23193,-0.96875;
18:32:30.393,0.35791,-0.22876,-0.95581;
18:32:30.403,0.35571,-0.21167,-0.97632;
18:32:30.413,0.34937,-0.18579,-0.99414;
18:32:30.423,0.33813,-0.15601,-1.01733;
18:32:30.433,0.32227,-0.13428,-1.04272;
18:32:30.443,0.29834,-0.13135,-1.06860;
18:32:30.453,0.24170,-0.13550,-1.09814;
18:32:30.463,0.15283,-0.13550,-1.12817;
18:32:30.473,0.08813,-0.15137,-1.13892;
18:32:30.483,0.09082,-0.18140,-1.10986;
18:32:30.493,0.11743,-0.19019,-1.06958;
18:32:30.503,0.13623,-0.16626,-1.01343;
18:32:30.513,-0.09985,0.14624,-0.62085;
18:32:30.523,-0.13306,0.15796,-0.58496;
18:32:30.533,-0.17212,0.15601,-0.55273;
18:32:30.543,-0.20728,0.19556,-0.54907;
18:32:30.553,-0.24731,0.27002,-0.56763;
18:32:30.563,-0.32642,0.36133,-0.57495;
18:32:30.573,-0.38721,0.44116,-0.56763;
18:32:30.583,-0.43677,0.48364,-0.59229;
18:32:30.593,-0.46069,0.51465,-0.62329;
18:32:30.603,-0.49683,0.54639,-0.64355;
18:32:30.613,-0.52173,0.56177,-0.65967;
18:32:30.623,-0.54443,0.57813,-0.64966;
18:32:30.633,-0.56006,0.56372,-0.64795;
18:32:30.643,-0.56079,0.55298,-0.65308;
18:32:30.653,-0.55493,0.54858,-0.65259;
18:32:30.663,-0.55029,0.54077,-0.66187;
18:32:30.673,-0.53955,0.54785,-0.68286;
18:32:30.683,-0.52344,0.57104,-0.70557;
18:32:30.693,-0.51245,0.61377,-0.71753;
18:32:30.703,-0.52588,0.66895,-0.70996;
18:32:30.713,-0.54102,0.67920,-0.71411;
18:32:30.723,-0.53442,0.69482,-0.71558;
18:32:30.733,-0.51782,0.76001,-0.72437;
18:32:30.743,-0.48730,0.72559,-0.71729;
18:32:30.753,-0.47607,0.73730,-0.72656;
18:32:30.763,-0.47461,0.72925,-0.71729;
18:32:30.773,-0.48022,0.71240,-0.70337;
18:32:30.783,-0.47900,0.70313,-0.68726;
18:32:30.793,-0.47314,0.69971,-0.67285;
18:32:30.803,-0.47192,0.70459,-0.66284;
18:32:30.813,-0.46655,0.71387,-0.65552;
18:32:30.823,-0.45679,0.71826,-0.65698;
18:32:30.833,-0.45654,0.71582,-0.66748;
18:32:30.843,-0.46265,0.70532,-0.67065;
18:32:30.853,-0.46411,0.68164,-0.66528;
18:32:30.863,-0.46240,0.66040,-0.66650;
18:32:30.873,-0.46362,0.64868,-0.66553;
18:32:30.883,-0.45996,0.64844,-0.66309;
18:32:30.893,-0.45654,0.65820,-0.65845;
18:32:30.903,-0.45239,0.66943,-0.66406;
18:32:30.913,-0.44482,0.68384,-0.68042;
18:32:30.923,-0.43677,0.69409,-0.68994;
18:32:30.933,-0.43091,0.69922,-0.70288;
18:32:30.943,-0.42285,0.70532,-0.70972;
18:32:30.953,-0.41895,0.70337,-0.70410;
18:32:30.963,-0.41626,0.69897,-0.70361;
18:32:30.973,-0.41040,0.69116,-0.69873;
18:32:30.983,-0.40991,0.68530,-0.69116;
18:32:30.993,-0.40332,0.68896,-0.69482;
18:32:31.003,-0.40015,0.69775,-0.70313;
18:32:31.013,-0.39551,0.71411,-0.70728;
18:32:31.023,-0.37744,0.72803,-0.72339;
18:32:31.033,-0.35767,0.72217,-0.72754;
18:32:31.043,-0.35889,0.71362,-0.72852;
18:32:31.053,-0.35791,0.70972,-0.72803;
18:32:31.063,-0.35205,0.71338,-0.72607;
18:32:31.073,-0.34595,0.72192,-0.72070;
18:32:31.083,-0.33984,0.72339,-0.71802;
18:32:31.093,-0.33252,0.72290,-0.71362;
18:32:31.103,-0.32446,0.72363,-0.70898;
18:32:31.113,-0.31299,0.72974,-0.71191;
18:32:31.123,-0.31079,0.72852,-0.71777;
18:32:31.133,-0.31201,0.71191,-0.72363;
18:32:31.143,-0.30713,0.70459,-0.72144;
18:32:31.153,-0.30176,0.70557,-0.72070;
18:32:31.163,-0.29541,0.70557,-0.71802;
18:32:31.173,-0.29028,0.70557,-0.71387;
18:32:31.183,-0.28711,0.70386,-0.70947;
18:32:31.193,-0.28271,0.69604,-0.70190;
18:32:31.203,-0.28003,0.68628,-0.69312;
18:32:31.213,-0.27954,0.68115,-0.68701;
18:32:31.223,-0.27734,0.67944,-0.68604;
18:32:31.233,-0.27759,0.67603,-0.69043;
18:32:31.243,-0.27881,0.67041,-0.69702;
18:32:31.253,-0.27832,0.66675,-0.69629;
18:32:31.263,-0.27661,0.66553,-0.69507;
18:32:31.273,-0.27563,0.66992,-0.69385;
18:32:31.283,-0.27051,0.67432,-0.69360;
18:32:31.293,-0.26733,0.67554,-0.69751;
18:32:31.303,-0.27002,0.67188,-0.69287;
18:32:31.313,-0.27173,0.65967,-0.68555;
18:32:31.323,-0.27441,0.65942,-0.67749;
18:32:31.333,-0.27539,0.66235,-0.67944;
18:32:31.343,-0.27100,0.66626,-0.68628;
18:32:31.353,-0.27319,0.66309,-0.68262;
18:32:31.363,-0.27783,0.65625,-0.68457;
18:32:31.373,-0.28174,0.65015,-0.68848;
18:32:31.383,-0.28589,0.64722,-0.69092;
18:32:31.393,-0.28857,0.64575,-0.68945;
18:32:31.403,-0.28564,0.64355,-0.69482;
18:32:31.413,-0.28149,0.64014,-0.69434;
18:32:31.423,-0.27856,0.63940,-0.68823;
18:32:31.433,-0.27393,0.64136,-0.68652;
18:32:31.443,-0.27271,0.64282,-0.67993;
18:32:31.453,-0.27563,0.64624,-0.67529;
18:32:31.463,-0.27588,0.64697,-0.67773;
18:32:31.473,-0.27832,0.64746,-0.68091;
18:32:31.483,-0.27954,0.64331,-0.68701;
18:32:31.493,-0.28149,0.64136,-0.68774;
18:32:31.503,-0.28564,0.64136,-0.68555;
18:32:31.513,-0.29053,0.64307,-0.67969;
18:32:31.523,-0.29468,0.64307,-0.67651;
18:32:31.533,-0.29199,0.64355,-0.67383;
18:32:31.543,-0.29224,0.64941,-0.67529;
18:32:31.553,-0.29370,0.65234,-0.68286;
18:32:31.563,-0.29395,0.65723,-0.68384;
18:32:31.573,-0.29346,0.65625,-0.68799;
18:32:31.583,-0.29517,0.65283,-0.69116;
18:32:31.593,-0.29785,0.65308,-0.69189;
18:32:31.603,-0.29810,0.65552,-0.69092;
18:32:31.613,-0.29712,0.66064,-0.69214;
18:32:31.623,-0.29541,0.66040,-0.69751;
18:32:31.633,-0.29956,0.64966,-0.68994;
18:32:31.643,-0.30151,0.65210,-0.67944;
18:32:31.653,-0.30396,0.65576,-0.67456;
18:32:31.663,-0.30444,0.66406,-0.67822;
18:32:31.673,-0.30420,0.66724,-0.68140;
18:32:31.683,-0.29858,0.66382,-0.68579;
18:32:31.693,-0.29614,0.66748,-0.69434;
18:32:31.703,-0.29321,0.67700,-0.68970;
18:32:31.713,-0.29297,0.68042,-0.68311;
18:32:31.723,-0.29614,0.67676,-0.68140;
18:32:31.733,-0.29883,0.67822,-0.67847;
18:32:31.743,-0.29932,0.68262,-0.68042;
18:32:31.753,-0.29834,0.68237,-0.67749;
18:32:31.763,-0.29810,0.68164,-0.67236;
18:32:31.773,-0.29614,0.68262,-0.67505;
18:32:31.783,-0.29565,0.68726,-0.67749;
18:32:31.793,-0.29565,0.69189,-0.68237;
18:32:31.803,-0.29492,0.69507,-0.68311;
18:32:31.813,-0.29395,0.68921,-0.68213;
18:32:31.823,-0.29321,0.68384,-0.68555;
18:32:31.833,-0.29492,0.68506,-0.68677;
18:32:31.843,-0.29614,0.68408,-0.68481;
18:32:31.853,-0.29370,0.68481,-0.68433;
18:32:31.863,-0.29199,0.68408,-0.68164;
18:32:31.873,-0.29126,0.68311,-0.68188;
18:32:31.883,-0.29004,0.68579,-0.68237;
18:32:31.893,-0.28735,0.68555,-0.68555;
18:32:31.903,-0.28491,0.68799,-0.68970;
18:32:31.913,-0.28442,0.69482,-0.69214;
18:32:31.923,-0.27856,0.69531,-0.69165;
18:32:31.933,-0.27319,0.67847,-0.67798;
18:32:31.943,-0.27100,0.67993,-0.67676;
18:32:31.953,-0.27222,0.67920,-0.67578;
18:32:31.963,-0.26978,0.67700,-0.67407;
18:32:31.973,-0.26709,0.67358,-0.66846;
18:32:31.983,-0.26782,0.67212,-0.66602;
18:32:31.993,-0.26587,0.67358,-0.66260;
18:32:32.003,-0.26245,0.68701,-0.66724;
18:32:32.013,-0.26611,0.69604,-0.67310;
18:32:32.023,-0.26831,0.69507,-0.67261;
18:32:32.033,-0.26709,0.68921,-0.67041;
18:32:32.043,-0.26587,0.68506,-0.66504;
18:32:32.053,-0.26880,0.68408,-0.66504;
18:32:32.063,-0.27393,0.68213,-0.66357;
18:32:32.073,-0.27954,0.68335,-0.66309;
18:32:32.083,-0.28320,0.68384,-0.66553;
18:32:32.093,-0.28467,0.68457,-0.66699;
18:32:32.103,-0.28442,0.68652,-0.67261;
18:32:32.113,-0.28296,0.68896,-0.67261;
18:32:32.123,-0.28101,0.68848,-0.67139;
18:32:32.133,-0.28101,0.68799,-0.67236;
18:32:32.143,-0.28223,0.68555,-0.67383;
18:32:32.153,-0.28271,0.68311,-0.67603;
18:32:32.163,-0.27930,0.68188,-0.67944;
18:32:32.173,-0.27686,0.68018,-0.68237;
18:32:32.183,-0.27759,0.67847,-0.67822;
18:32:32.193,-0.27808,0.68115,-0.67310;
18:32:32.203,-0.27832,0.68677,-0.67261;
18:32:32.213,-0.27637,0.69263,-0.67017;
18:32:32.223,-0.27637,0.69458,-0.67065;
18:32:32.233,-0.27637,0.69873,-0.66992;
18:32:32.243,-0.27271,0.69556,-0.66162;
18:32:32.253,-0.27295,0.69775,-0.66357;
18:32:32.263,-0.27563,0.69873,-0.66113;
18:32:32.273,-0.27173,0.69897,-0.66284;
18:32:32.283,-0.27441,0.69775,-0.65894;
18:32:32.293,-0.27930,0.69751,-0.65869;
18:32:32.303,-0.28345,0.69653,-0.66113;
18:32:32.313,-0.28467,0.69995,-0.66260;
18:32:32.323,-0.28101,0.70044,-0.66333;
18:32:32.333,-0.28027,0.70288,-0.66553;
18:32:32.343,-0.28149,0.70337,-0.66772;
18:32:32.353,-0.28101,0.69873,-0.66968;
18:32:32.363,-0.28125,0.69873,-0.67334;
18:32:32.373,-0.28174,0.69604,-0.67236;
18:32:32.383,-0.27808,0.69751,-0.67261;
18:32:32.393,-0.27344,0.69995,-0.67407;
18:32:32.403,-0.27271,0.69263,-0.67554;
18:32:32.413,-0.27588,0.68994,-0.66821;
18:32:32.423,-0.27808,0.68994,-0.66577;
18:32:32.433,-0.28296,0.68994,-0.66870;
18:32:32.443,-0.28613,0.68774,-0.66772;
18:32:32.453,-0.28369,0.68530,-0.66724;
18:32:32.463,-0.27856,0.68896,-0.66968;
18:32:32.473,-0.27588,0.69312,-0.67065;
18:32:32.483,-0.27246,0.69458,-0.66626;
18:32:32.493,-0.26880,0.69702,-0.66431;
18:32:32.503,-0.26636,0.69946,-0.66406;
18:32:32.513,-0.26440,0.70142,-0.66724;
18:32:32.523,-0.26318,0.70215,-0.66650;
18:32:32.533,-0.26392,0.69507,-0.66455;
18:32:32.543,-0.26245,0.68872,-0.66089;
18:32:32.553,-0.26147,0.69214,-0.65845;
18:32:32.563,-0.26099,0.69214,-0.65552;
18:32:32.573,-0.26172,0.68579,-0.66089;
18:32:32.583,-0.26270,0.68457,-0.66187;
18:32:32.593,-0.26440,0.68652,-0.66260;
18:32:32.603,-0.26660,0.69165,-0.65869;
18:32:32.613,-0.26318,0.69263,-0.65845;
18:32:32.623,-0.26172,0.69067,-0.65796;
18:32:32.633,-0.26050,0.69336,-0.65991;
18:32:32.643,-0.25977,0.69922,-0.66235;
18:32:32.653,-0.25830,0.69849,-0.66284;
18:32:32.663,-0.25879,0.69702,-0.66284;
18:32:32.673,-0.25928,0.69775,-0.65454;
18:32:32.683,-0.25708,0.69751,-0.65430;
18:32:32.693,-0.26025,0.69287,-0.65991;
18:32:32.703,-0.26074,0.69531,-0.66235;
18:32:32.713,-0.26123,0.69653,-0.66260;
18:32:32.723,-0.26611,0.69287,-0.66504;
18:32:32.733,-0.26758,0.69141,-0.65820;
18:32:32.743,-0.26978,0.68970,-0.65283;
18:32:32.753,-0.27173,0.69287,-0.65674;
18:32:32.763,-0.27075,0.69360,-0.65698;
18:32:32.773,-0.27148,0.69580,-0.66675;
18:32:32.783,-0.26953,0.70044,-0.66846;
18:32:32.793,-0.26636,0.70190,-0.67139;
18:32:32.803,-0.26514,0.70044,-0.67529;
18:32:32.813,-0.26758,0.70337,-0.66919;
18:32:32.823,-0.26831,0.70654,-0.67041;
18:32:32.833,-0.27075,0.69312,-0.66846;
18:32:32.843,-0.27246,0.69116,-0.67188;
18:32:32.853,-0.26489,0.69849,-0.67310;
18:32:32.863,-0.26318,0.69775,-0.67114;
18:32:32.873,-0.26416,0.69580,-0.67090;
18:32:32.883,-0.26758,0.69482,-0.66895;
18:32:32.893,-0.27197,0.69849,-0.66309;
18:32:32.903,-0.27319,0.69922,-0.66064;
18:32:32.913,-0.27319,0.69995,-0.66138;
18:32:32.923,-0.26978,0.70435,-0.66479;
18:32:32.933,-0.26538,0.70679,-0.66724;
18:32:32.943,-0.26709,0.70630,-0.66675;
18:32:32.953,-0.26831,0.70435,-0.66235;
18:32:32.963,-0.26807,0.70093,-0.65894;
18:32:32.973,-0.27026,0.69946,-0.66040;
18:32:32.983,-0.27124,0.69727,-0.65918;
18:32:32.993,-0.27026,0.69946,-0.65991;
18:32:33.003,-0.26929,0.70068,-0.66455;
18:32:33.013,-0.27246,0.69873,-0.66577;
18:32:33.023,-0.27246,0.69946,-0.66528;
18:32:33.033,-0.26953,0.69800,-0.66357;
18:32:33.043,-0.26709,0.69897,-0.66382;
18:32:33.053,-0.26416,0.70215,-0.66284;
18:32:33.063,-0.26123,0.70117,-0.66406;
18:32:33.073,-0.25903,0.69971,-0.66748;
18:32:33.083,-0.25757,0.70215,-0.66577;
18:32:33.093,-0.26074,0.69800,-0.66528;
18:32:33.103,-0.26172,0.69019,-0.66235;
18:32:33.113,-0.25854,0.69189,-0.66211;
18:32:33.123,-0.25708,0.69409,-0.65918;
18:32:33.133,-0.25610,0.69409,-0.65869;
18:32:33.143,-0.25562,0.69336,-0.66016;
18:32:33.153,-0.25708,0.69409,-0.66113;
18:32:33.163,-0.25854,0.69507,-0.66431;
18:32:33.173,-0.26001,0.69434,-0.66650;
18:32:33.183,-0.26123,0.69116,-0.66455;
18:32:33.193,-0.26196,0.68921,-0.66187;
18:32:33.203,-0.25806,0.69287,-0.66357;
18:32:33.213,-0.25806,0.69238,-0.66577;
18:32:33.223,-0.25879,0.69067,-0.66870;
18:32:33.233,-0.25806,0.69531,-0.67041;
18:32:33.243,-0.25903,0.69458,-0.66919;
18:32:33.253,-0.25708,0.69141,-0.66821;
18:32:33.263,-0.25635,0.69360,-0.66895;
18:32:33.273,-0.25610,0.69482,-0.66772;
18:32:33.283,-0.25684,0.69580,-0.66577;
18:32:33.293,-0.26221,0.69263,-0.66821;
18:32:33.303,-0.26099,0.69189,-0.66748;
18:32:33.313,-0.25928,0.69116,-0.66626;
18:32:33.323,-0.26025,0.69165,-0.66821;
18:32:33.333,-0.25684,0.69360,-0.66846;
18:32:33.343,-0.25806,0.69214,-0.66626;
18:32:33.353,-0.26001,0.69214,-0.66650;
18:32:33.363,-0.26099,0.69238,-0.66602;
18:32:33.373,-0.26343,0.69409,-0.66772;
18:32:33.383,-0.26611,0.69531,-0.67114;
18:32:33.393,-0.26514,0.69507,-0.67432;
18:32:33.403,-0.26318,0.69189,-0.67407;
18:32:33.413,-0.26270,0.69092,-0.67334;
18:32:33.423,-0.26440,0.69409,-0.67432;
18:32:33.433,-0.26294,0.69287,-0.67188;
18:32:33.443,-0.26147,0.69019,-0.67505;
18:32:33.453,-0.26318,0.68921,-0.67554;
18:32:33.463,-0.26172,0.68872,-0.67407;
18:32:33.473,-0.25854,0.68945,-0.67505;
18:32:33.483,-0.25806,0.69043,-0.67285;
18:32:33.493,-0.25879,0.69214,-0.67212;
18:32:33.503,-0.26025,0.69434,-0.67407;
18:32:33.513,-0.26001,0.69165,-0.67236;
18:32:33.523,-0.25977,0.68726,-0.67334;
18:32:33.533,-0.26147,0.68628,-0.67334;
18:32:33.543,-0.26465,0.68140,-0.66748;
18:32:33.553,-0.26196,0.68042,-0.66577;
18:32:33.563,-0.25684,0.68018,-0.66724;
18:32:33.573,-0.25684,0.67896,-0.66406;
18:32:33.583,-0.25464,0.68213,-0.66577;
18:32:33.593,-0.25317,0.68433,-0.66699;
18:32:33.603,-0.25513,0.68970,-0.66724;
18:32:33.613,-0.25562,0.69312,-0.67310;
18:32:33.623,-0.25537,0.69458,-0.67432;
18:32:33.633,-0.25732,0.69043,-0.67334;
18:32:33.643,-0.25879,0.68408,-0.67090;
18:32:33.653,-0.25635,0.68457,-0.66870;
18:32:33.663,-0.26099,0.68457,-0.66748;
18:32:33.673,-0.26392,0.68726,-0.66943;
18:32:33.683,-0.26147,0.69434,-0.67163;
18:32:33.693,-0.25708,0.69727,-0.67407;
18:32:33.703,-0.25830,0.69360,-0.66772;
18:32:33.713,-0.25928,0.69019,-0.66626;
18:32:33.723,-0.25977,0.68970,-0.66846;
18:32:33.733,-0.26270,0.69263,-0.66846;
18:32:33.743,-0.26196,0.69458,-0.67383;
18:32:33.753,-0.26270,0.69556,-0.67090;
18:32:33.763,-0.26196,0.69336,-0.66504;
18:32:33.773,-0.25781,0.68945,-0.66406;
18:32:33.783,-0.25659,0.69141,-0.66406;
18:32:33.793,-0.25391,0.69800,-0.67017;
18:32:33.803,-0.25464,0.70117,-0.67334;
18:32:33.813,-0.25513,0.70020,-0.67725;
18:32:33.823,-0.25806,0.69629,-0.67554;
18:32:33.833,-0.25977,0.69189,-0.66968;
18:32:33.843,-0.26074,0.69238,-0.66772;
18:32:33.853,-0.26221,0.69336,-0.66602;
18:32:33.863,-0.26343,0.68701,-0.66333;
18:32:33.873,-0.26440,0.68896,-0.66479;
18:32:33.883,-0.26294,0.68872,-0.66528;
18:32:33.893,-0.26343,0.68750,-0.66895;
18:32:33.903,-0.26245,0.68945,-0.67017;
18:32:33.913,-0.25928,0.68506,-0.67139;
18:32:33.923,-0.25879,0.68457,-0.67236;
18:32:33.933,-0.26099,0.68433,-0.67358;
18:32:33.943,-0.26025,0.68530,-0.67627;
18:32:33.953,-0.25586,0.68604,-0.67358;
18:32:33.963,-0.25049,0.68555,-0.67163;
18:32:33.973,-0.25073,0.68579,-0.67212;
18:32:33.983,-0.25098,0.68872,-0.68188;
18:32:33.993,-0.25269,0.68433,-0.67676;
18:32:34.003,-0.25562,0.68750,-0.67798;
18:32:34.013,-0.25854,0.68970,-0.67773;
18:32:34.023,-0.25977,0.69189,-0.67993;
18:32:34.033,-0.26343,0.68921,-0.68237;
18:32:34.043,-0.26660,0.68384,-0.68530;
18:32:34.053,-0.26904,0.68335,-0.68335;
18:32:34.063,-0.27075,0.68457,-0.68359;
18:32:34.073,-0.27222,0.68042,-0.68530;
18:32:34.083,-0.27368,0.67847,-0.68921;
18:32:34.093,-0.27734,0.67896,-0.69702;
18:32:34.103,-0.27661,0.68408,-0.70190;
18:32:34.113,-0.27490,0.68872,-0.70239;
18:32:34.123,-0.27026,0.68359,-0.70459;
18:32:34.133,-0.27026,0.67920,-0.69556;
18:32:34.143,-0.26831,0.67871,-0.69458;
18:32:34.153,-0.26831,0.68262,-0.70093;
18:32:34.163,-0.26489,0.68799,-0.70264;
18:32:34.173,-0.26221,0.68384,-0.70557;
18:32:34.183,-0.26416,0.67969,-0.69751;
18:32:34.193,-0.25781,0.67896,-0.69116;
18:32:34.203,-0.25928,0.67798,-0.68750;
18:32:34.213,-0.26050,0.68042,-0.68335;
18:32:34.223,-0.25854,0.68555,-0.67969;
18:32:34.233,-0.25610,0.68774,-0.67700;
18:32:34.243,-0.25781,0.68506,-0.67993;
18:32:34.253,-0.25439,0.68115,-0.67407;
18:32:34.263,-0.25537,0.67920,-0.67041;
18:32:34.273,-0.25806,0.67676,-0.67017;
18:32:34.283,-0.25732,0.67700,-0.66675;
18:32:34.293,-0.25659,0.67822,-0.66772;
18:32:34.303,-0.25195,0.67944,-0.67212;
18:32:34.313,-0.24609,0.67920,-0.67407;
18:32:34.323,-0.24658,0.67944,-0.67310;
18:32:34.333,-0.24829,0.68042,-0.67651;
18:32:34.343,-0.25000,0.67944,-0.67383;
18:32:34.353,-0.25171,0.67310,-0.66992;
18:32:34.363,-0.24902,0.67236,-0.67163;
18:32:34.373,-0.24780,0.67480,-0.67017;
18:32:34.383,-0.24512,0.67773,-0.67212;
18:32:34.393,-0.24634,0.67871,-0.67456;
18:32:34.403,-0.24927,0.67847,-0.67358;
18:32:34.413,-0.25146,0.67407,-0.67578;
18:32:34.423,-0.25537,0.66650,-0.67285;
18:32:34.433,-0.25293,0.66284,-0.67627;
18:32:34.443,-0.25244,0.66357,-0.67432;
18:32:34.453,-0.25024,0.66357,-0.67261;
18:32:34.463,-0.25049,0.66309,-0.67505;
18:32:34.473,-0.24780,0.66772,-0.67969;
18:32:34.483,-0.24707,0.66699,-0.68164;
18:32:34.493,-0.24780,0.66528,-0.68091;
18:32:34.503,-0.24878,0.66650,-0.68018;
18:32:34.513,-0.25024,0.66333,-0.67896;
18:32:34.523,-0.25293,0.66333,-0.68140;
18:32:34.533,-0.25537,0.66528,-0.68286;
18:32:34.543,-0.25562,0.66577,-0.68506;
18:32:34.553,-0.25806,0.66748,-0.68555;
18:32:34.563,-0.25903,0.66846,-0.68994;
18:32:34.573,-0.25977,0.66821,-0.68896;
18:32:34.583,-0.25537,0.67065,-0.69019;
18:32:34.593,-0.25659,0.67163,-0.69482;
18:32:34.603,-0.25659,0.67188,-0.69531;
18:32:34.613,-0.26025,0.67383,-0.68970;
18:32:34.623,-0.25879,0.67871,-0.69141;
18:32:34.633,-0.26221,0.68018,-0.69165;
18:32:34.643,-0.26221,0.67456,-0.68945;
18:32:34.653,-0.25854,0.67090,-0.69019;
18:32:34.663,-0.26099,0.67163,-0.69092;
18:32:34.673,-0.26221,0.67578,-0.69409;
18:32:34.683,-0.26318,0.67798,-0.69092;
18:32:34.693,-0.26318,0.67871,-0.69507;
18:32:34.703,-0.26440,0.67847,-0.69482;
18:32:34.713,-0.26392,0.67725,-0.69116;
18:32:34.723,-0.26563,0.67529,-0.69312;
18:32:34.733,-0.26392,0.67358,-0.69507;
18:32:34.743,-0.26294,0.67456,-0.69507;
18:32:34.753,-0.26660,0.67139,-0.69775;
18:32:34.763,-0.26514,0.67310,-0.69629;
18:32:34.773,-0.26172,0.67358,-0.69287;
18:32:34.783,-0.26147,0.67212,-0.69409;
18:32:34.793,-0.26001,0.67383,-0.69653;
18:32:34.803,-0.25708,0.67285,-0.69458;
18:32:34.813,-0.25732,0.66943,-0.69360;
18:32:34.823,-0.25757,0.66479,-0.68726;
18:32:34.833,-0.25635,0.66211,-0.68823;
18:32:34.843,-0.25684,0.66309,-0.68262;
18:32:34.853,-0.25415,0.66699,-0.68433;
18:32:34.863,-0.25024,0.66724,-0.68481;
18:32:34.873,-0.25073,0.66724,-0.68311;
18:32:34.883,-0.25098,0.66870,-0.68335;
18:32:34.893,-0.25049,0.66919,-0.68262;
18:32:34.903,-0.25024,0.66797,-0.68237;
18:32:34.913,-0.24976,0.66699,-0.68237;
18:32:34.923,-0.25342,0.66675,-0.68188;
18:32:34.933,-0.25171,0.67017,-0.68286;
18:32:34.943,-0.25269,0.67114,-0.68384;
18:32:34.953,-0.25195,0.67432,-0.68359;
18:32:34.963,-0.25073,0.67554,-0.68408;
18:32:34.973,-0.25000,0.67261,-0.68726;
18:32:34.983,-0.24927,0.67700,-0.68823;
18:32:34.993,-0.25000,0.67944,-0.68799;
18:32:35.003,-0.25024,0.67676,-0.69043;
18:32:35.013,-0.25146,0.67432,-0.68677;
18:32:35.023,-0.24951,0.67261,-0.68481;
18:32:35.033,-0.24976,0.66772,-0.68311;
18:32:35.043,-0.24805,0.66870,-0.68066;
18:32:35.053,-0.24707,0.66870,-0.68555;
18:32:35.063,-0.24927,0.66528,-0.68628;
18:32:35.073,-0.25171,0.66382,-0.68555;
18:32:35.083,-0.25366,0.66235,-0.68896;
18:32:35.093,-0.25293,0.66357,-0.69214;
18:32:35.103,-0.25171,0.66553,-0.69434;
18:32:35.113,-0.25342,0.66577,-0.69556;
18:32:35.123,-0.25610,0.66626,-0.70337;
18:32:35.133,-0.25269,0.66602,-0.70825;
18:32:35.143,-0.25488,0.66064,-0.70532;
18:32:35.153,-0.25732,0.65771,-0.70068;
18:32:35.163,-0.25684,0.66187,-0.70068;
18:32:35.173,-0.25952,0.66675,-0.70020;
18:32:35.183,-0.25757,0.66504,-0.70093;
18:32:35.193,-0.25635,0.66162,-0.70361;
18:32:35.203,-0.25415,0.66504,-0.70581;
18:32:35.213,-0.25024,0.66553,-0.70483;
18:32:35.223,-0.24927,0.66553,-0.70264;
18:32:35.233,-0.24683,0.66357,-0.70190;
18:32:35.243,-0.24585,0.66528,-0.70068;
18:32:35.253,-0.24414,0.66724,-0.69800;
18:32:35.263,-0.24365,0.66626,-0.69531;
18:32:35.273,-0.24292,0.66895,-0.69385;
18:32:35.283,-0.24414,0.67065,-0.69580;
18:32:35.293,-0.24609,0.66699,-0.69409;
18:32:35.303,-0.24829,0.66528,-0.69653;
18:32:35.313,-0.25293,0.66138,-0.69214;
18:32:35.323,-0.25366,0.65918,-0.69092;
18:32:35.333,-0.25562,0.66064,-0.69336;
18:32:35.343,-0.25439,0.66138,-0.69019;
18:32:35.353,-0.24927,0.66040,-0.69263;
18:32:35.363,-0.25220,0.65869,-0.69385;
18:32:35.373,-0.25464,0.65942,-0.69385;
18:32:35.383,-0.25195,0.65845,-0.69531;
18:32:35.393,-0.25220,0.65723,-0.70044;
18:32:35.403,-0.25854,0.65527,-0.70361;
18:32:35.413,-0.26807,0.64868,-0.71021;
18:32:35.423,-0.27856,0.64819,-0.71094;
18:32:35.433,-0.28711,0.64673,-0.71729;
18:32:35.443,-0.29590,0.64404,-0.71997;
18:32:35.453,-0.30542,0.63452,-0.71533;
18:32:35.463,-0.31860,0.62793,-0.70605;
18:32:35.473,-0.31860,0.62354,-0.70435;
18:32:35.483,-0.32446,0.61646,-0.72534;
18:32:35.493,-0.34009,0.60571,-0.74390;
18:32:35.503,-0.35693,0.59106,-0.75146;
18:32:35.513,-0.36206,0.58374,-0.75073;
18:32:35.523,-0.36450,0.58130,-0.75952;
18:32:35.533,-0.38135,0.60205,-0.77856;
18:32:35.543,-0.39355,0.61841,-0.80957;
18:32:35.553,-0.39526,0.59790,-0.82275;
18:32:35.563,-0.38477,0.56689,-0.83130;
18:32:35.573,-0.37500,0.54565,-0.84106;
18:32:35.583,-0.37183,0.52832,-0.84595;
18:32:35.593,-0.36743,0.51929,-0.84106;
18:32:35.603,-0.36426,0.54004,-0.82642;
18:32:35.613,-0.36499,0.58130,-0.82007;
18:32:35.623,-0.36841,0.60474,-0.81812;
18:32:35.633,-0.36401,0.61475,-0.82104;
18:32:35.643,-0.35474,0.62622,-0.82104;
18:32:35.653,-0.34790,0.62671,-0.82300;
18:32:35.663,-0.33765,0.60522,-0.82129;
18:32:35.673,-0.32031,0.57324,-0.82544;
18:32:35.683,-0.30591,0.54858,-0.82690;
18:32:35.693,-0.30664,0.53394,-0.81836;
18:32:35.703,-0.31226,0.54199,-0.78418;
18:32:35.713,-0.28760,0.59302,-0.85303;
18:32:35.723,-0.24609,0.61621,-0.84253;
18:32:35.733,-0.22656,0.60547,-0.81885;
18:32:35.743,-0.22974,0.57593,-0.79517;
18:32:35.753,-0.23022,0.55078,-0.77563;
18:32:35.763,-0.23096,0.52637,-0.76782;
18:32:35.773,-0.22705,0.50244,-0.77393;
18:32:35.783,-0.21240,0.49829,-0.75171;
18:32:35.793,-0.18628,0.50537,-0.74707;
18:32:35.803,-0.16309,0.54224,-0.78369;
18:32:35.813,-0.15161,0.57983,-0.81177;
18:32:35.823,-0.13501,0.58203,-0.82544;
18:32:35.833,-0.10742,0.60645,-0.84302;
18:32:35.843,-0.06494,0.62671,-0.83984;
18:32:35.853,-0.04883,0.60669,-0.81763;
18:32:35.863,-0.04297,0.55200,-0.79028;
18:32:35.873,0.05298,0.54785,-0.84448;
18:32:35.883,0.08496,0.59302,-0.88159;
18:32:35.893,0.06592,0.56641,-0.86743;
18:32:35.903,0.10449,0.52393,-0.87891;
18:32:35.913,0.13086,0.51758,-0.89307;
18:32:35.923,0.14355,0.51685,-0.92334;
18:32:35.933,0.10913,0.36719,-0.92603;
18:32:35.943,0.10596,0.33154,-0.91064;
18:32:35.953,0.09717,0.31299,-0.89966;
18:32:35.963,0.09839,0.29956,-0.90967;
18:32:35.973,0.11084,0.27759,-0.92993;
18:32:35.983,0.10352,0.27466,-0.90796;
18:32:35.993,0.09399,0.26099,-0.91943;
18:32:36.003,0.09106,0.22705,-0.92944;
18:32:36.013,0.09766,0.19019,-0.93140;
18:32:36.023,0.12036,0.19849,-0.92896;
18:32:36.033,0.12598,0.22095,-0.93262;
18:32:36.043,0.10278,0.22437,-0.94116;
18:32:36.053,0.07153,0.21484,-0.95459;
18:32:36.063,0.04053,0.19604,-0.96240;
18:32:36.073,0.02075,0.16309,-0.96851;
18:32:36.083,0.01123,0.13013,-0.96680;
18:32:36.093,0.01343,0.12134,-0.95630;
18:32:36.103,0.02051,0.11963,-0.95337;
18:32:36.113,0.02148,0.11377,-0.95801;
18:32:36.123,0.02246,0.10645,-0.95850;
18:32:36.133,0.01953,0.10425,-0.95483;
18:32:36.143,0.01563,0.11694,-0.95923;
18:32:36.153,0.01807,0.13501,-0.96362;
18:32:36.163,0.02271,0.14063,-0.97314;
18:32:36.173,0.02490,0.13159,-0.98584;
18:32:36.183,0.02808,0.12866,-0.99438;
18:32:36.193,0.03345,0.12573,-0.99609;
18:32:36.203,0.04004,0.12427,-0.99390;
18:32:36.213,0.04761,0.12329,-1.00928;
18:32:36.223,0.05811,0.11914,-1.01343;
18:32:36.233,0.06958,0.11035,-1.00903;
18:32:36.243,0.07422,0.09521,-1.00635;
18:32:36.253,0.07373,0.09302,-1.01001;
18:32:36.263,0.06470,0.09082,-1.01807;
18:32:36.273,0.06592,0.11914,-1.01318;
18:32:36.283,0.09033,0.12988,-1.01709;
18:32:36.293,0.09277,0.12231,-1.00977;
18:32:36.303,0.08423,0.11743,-1.00537;
18:32:36.313,0.07251,0.11670,-1.00415;
18:32:36.323,0.07544,0.12598,-1.00610;
18:32:36.333,0.08423,0.12012,-1.00806;
18:32:36.343,0.09326,0.10205,-1.00903;
18:32:36.353,0.10376,0.09131,-1.01172;
18:32:36.363,0.09790,0.09375,-1.00928;
18:32:36.373,0.08447,0.09985,-1.00098;
18:32:36.383,0.07861,0.09302,-0.99585;
18:32:36.393,0.07666,0.08789,-0.99609;
18:32:36.403,0.07837,0.08618,-0.99756;
18:32:36.413,0.08105,0.07495,-0.99976;
18:32:36.423,0.09375,0.07031,-1.00269;
18:32:36.433,0.10449,0.07690,-1.00830;
18:32:36.443,0.10425,0.07764,-1.01685;
18:32:36.453,0.11108,0.07666,-1.02075;
18:32:36.463,0.11523,0.07495,-1.01367;
18:32:36.473,0.11401,0.07910,-1.00098;
18:32:36.483,0.11157,0.09253,-0.99121;
18:32:36.493,0.11035,0.09644,-0.99170;
18:32:36.503,0.10864,0.10352,-0.99268;
18:32:36.513,0.10425,0.10693,-0.99097;
18:32:36.523,0.09863,0.09668,-0.98682;
18:32:36.533,0.09521,0.09009,-0.98071;
18:32:36.543,0.08984,0.08936,-0.97998;
18:32:36.553,0.08301,0.07935,-0.98853;
18:32:36.563,0.08521,0.06738,-0.98340;
18:32:36.573,0.07935,0.08521,-0.97974;
18:32:36.583,0.06738,0.08667,-0.97803;
18:32:36.593,0.07202,0.07568,-0.98633;
18:32:36.603,0.08350,0.06079,-0.99194;
18:32:36.613,0.09277,0.04834,-1.00244;
18:32:36.623,0.09180,0.04736,-1.01050;
18:32:36.633,0.08545,0.04858,-1.00879;
18:32:36.643,0.07910,0.04346,-1.01050;
18:32:36.653,0.07544,0.04956,-1.00757;
18:32:36.663,0.07837,0.05737,-1.00439;
18:32:36.673,0.08838,0.05737,-1.00659;
18:32:36.683,0.10498,0.05786,-1.00757;
18:32:36.693,0.11768,0.06226,-1.01196;
18:32:36.703,0.11816,0.05908,-1.01514;
18:32:36.713,0.11426,0.05542,-1.00781;
18:32:36.723,0.11182,0.06006,-1.00220;
18:32:36.733,0.10693,0.06226,-1.00464;
18:32:36.743,0.10254,0.06616,-1.00195;
18:32:36.753,0.09912,0.07275,-0.99902;
18:32:36.763,0.09888,0.07300,-0.99414;
18:32:36.773,0.10376,0.07373,-0.98853;
18:32:36.783,0.10352,0.06958,-0.99097;
18:32:36.793,0.10034,0.06128,-0.98584;
18:32:36.803,0.09741,0.05981,-0.98364;
18:32:36.813,0.09766,0.07104,-0.98608;
18:32:36.823,0.09644,0.08643,-0.99146;
18:32:36.833,0.10205,0.08179,-1.00073;
18:32:36.843,0.12231,0.07202,-1.00537;
18:32:36.853,0.14331,0.07739,-1.00830;
18:32:36.863,0.14990,0.09009,-1.02539;
18:32:36.873,0.14575,0.08911,-1.03564;
18:32:36.883,0.14258,0.07104,-1.02002;
18:32:36.893,0.14575,0.06763,-1.02197;
18:32:36.903,0.15283,0.07593,-1.02051;
18:32:36.913,0.15039,0.08472,-1.01050;
18:32:36.923,0.14111,0.08911,-1.00781;
18:32:36.933,0.13379,0.09619,-1.00439;
18:32:36.943,0.13062,0.09619,-1.00000;
18:32:36.953,0.13623,0.10181,-1.00439;
18:32:36.963,0.14600,0.11841,-1.01123;
18:32:36.973,0.16138,0.13232,-1.02002;
18:32:36.983,0.17578,0.14087,-1.03198;
18:32:36.993,0.18921,0.15723,-1.05103;
18:32:37.003,0.21704,0.19092,-1.06421;
18:32:37.013,0.24194,0.21118,-1.07007;
18:32:37.023,0.25415,0.21924,-1.06519;
18:32:37.033,0.26611,0.24365,-1.07202;
18:32:37.043,0.28296,0.27002,-1.08960;
18:32:37.053,0.29688,0.28125,-1.09863;
18:32:37.063,0.29370,0.28760,-1.10547;
18:32:37.073,0.28613,0.30640,-1.10083;
18:32:37.083,0.27905,0.34424,-1.08350;
18:32:37.093,0.27002,0.36792,-1.05518;
18:32:37.103,0.25610,0.36475,-1.01318;
18:32:37.113,0.23218,0.35718,-0.97729;
18:32:37.123,0.19141,0.33472,-0.95850;
18:32:37.133,0.14331,0.29150,-0.94897;
18:32:37.143,0.10400,0.26782,-0.94067;
18:32:37.153,0.07373,0.26978,-0.93286;
18:32:37.163,0.04614,0.27148,-0.91895;
18:32:37.173,-0.07520,0.20850,-0.90576;
18:32:37.183,-0.12183,0.15723,-0.92725;
18:32:37.193,-0.12402,0.14966,-0.93970;
18:32:37.203,-0.12207,0.15918,-0.93311;
18:32:37.213,-0.12720,0.18042,-0.92041;
18:32:37.223,-0.16333,0.21606,-0.91797;
18:32:37.233,-0.20972,0.24829,-0.91943;
18:32:37.243,-0.23511,0.23389,-0.92896;
18:32:37.253,-0.25171,0.18652,-0.95337;
18:32:37.263,-0.26465,0.15845,-0.97241;
18:32:37.273,-0.26782,0.15845,-0.98169;
18:32:37.283,-0.26294,0.17529,-0.98120;
18:32:37.293,-0.25464,0.17139,-0.95483;
18:32:37.303,-0.23901,0.16455,-0.93701;
18:32:37.313,-0.23853,0.18579,-0.93433;
18:32:37.323,-0.27075,0.22070,-0.91504;
18:32:37.333,-0.31812,0.23755,-0.89502;
18:32:37.343,-0.35718,0.23315,-0.88892;
18:32:37.353,-0.37915,0.24341,-0.89307;
18:32:37.363,-0.38867,0.25659,-0.89746;
18:32:37.373,-0.37793,0.23462,-0.90186;
18:32:37.383,-0.36206,0.19019,-0.92114;
18:32:37.393,-0.35718,0.15625,-0.93335;
18:32:37.403,-0.36230,0.13403,-0.92969;
18:32:37.413,-0.37402,0.14160,-0.92871;
18:32:37.423,-0.38794,0.18018,-0.93823;
18:32:37.433,-0.41650,0.23096,-0.94141;
18:32:37.443,-0.44287,0.26904,-0.93066;
18:32:37.453,-0.45923,0.28320,-0.92456;
18:32:37.463,-0.46460,0.30151,-0.94678;
18:32:37.473,-0.47388,0.33838,-0.95581;
18:32:37.483,-0.48022,0.33496,-0.94287;
18:32:37.493,-0.49072,0.31543,-0.92749;
18:32:37.503,-0.47656,0.30347,-0.93896;
18:32:37.513,-0.44727,0.31787,-0.91699;
18:32:37.523,-0.46411,0.34302,-0.88794;
18:32:37.533,-0.49878,0.34595,-0.86353;
18:32:37.543,-0.51050,0.34497,-0.82910;
18:32:37.553,-0.51221,0.35962,-0.81860;
18:32:37.563,-0.51392,0.37085,-0.81885;
18:32:37.573,-0.52246,0.35083,-0.81592;
18:32:37.583,-0.53076,0.30640,-0.80347;
18:32:37.593,-0.52954,0.28516,-0.78101;
18:32:37.603,-0.52612,0.29688,-0.75806;
18:32:37.613,-0.53198,0.31470,-0.74121;
18:32:37.623,-0.54248,0.32397,-0.72729;
18:32:37.633,-0.54980,0.33374,-0.73291;
18:32:37.643,-0.55054,0.33398,-0.75024;
18:32:37.653,-0.54980,0.31128,-0.76978;
18:32:37.663,-0.55151,0.30664,-0.77686;
18:32:37.673,-0.54199,0.31982,-0.77319;
18:32:37.683,-0.53467,0.32837,-0.75903;
18:32:37.693,-0.53418,0.32275,-0.73120;
18:32:37.703,-0.54126,0.31006,-0.69897;
18:32:37.713,-0.55347,0.31470,-0.68726;
18:32:37.723,-0.56738,0.32153,-0.69897;
18:32:37.733,-0.57422,0.32178,-0.71777;
18:32:37.743,-0.57690,0.30493,-0.74463;
18:32:37.753,-0.57471,0.28540,-0.77295;
18:32:37.763,-0.57104,0.27856,-0.75244;
18:32:37.773,-0.59595,0.27905,-0.71826;
18:32:37.783,-0.59424,0.27515,-0.72290;
18:32:37.793,-0.58521,0.26074,-0.72461;
18:32:37.803,-0.56470,0.25098,-0.71411;
18:32:37.813,-0.55518,0.27417,-0.71411;
18:32:37.823,-0.56226,0.30981,-0.71533;
18:32:37.833,-0.57861,0.31665,-0.71362;
18:32:37.843,-0.57764,0.30713,-0.70581;
18:32:37.853,-0.56421,0.30396,-0.69336;
18:32:37.863,-0.56348,0.29834,-0.68945;
18:32:37.873,-0.56299,0.28247,-0.67896;
18:32:37.883,-0.56616,0.25903,-0.66089;
18:32:37.893,-0.56494,0.22534,-0.64111;
18:32:37.903,-0.55103,0.19116,-0.61182;
18:32:37.913,-0.52710,0.16431,-0.58936;
18:32:37.923,-0.50879,0.16406,-0.58228;
18:32:37.933,-0.49487,0.18140,-0.58423;
18:32:37.943,-0.47754,0.19019,-0.58569;
18:32:37.953,-0.45801,0.22217,-0.58691;
18:32:37.963,-0.43262,0.26367,-0.61279;
18:32:37.973,-0.42334,0.30640,-0.65308;
18:32:37.983,-0.41992,0.34497,-0.70117;
18:32:37.993,-0.42603,0.36646,-0.76831;
18:32:38.003,-0.43628,0.38208,-0.83716;
18:32:38.013,-0.42578,0.35156,-0.86255;
18:32:38.023,-0.40796,0.29688,-0.86011;
18:32:38.033,-0.37866,0.28003,-0.86377;
18:32:38.043,-0.38257,0.29761,-0.89453;
18:32:38.053,-0.40674,0.30396,-0.91870;
18:32:38.063,-0.43408,0.23315,-0.88525;
18:32:38.073,-0.45752,0.25439,-0.88428;
18:32:38.083,-0.48242,0.23560,-0.87500;
18:32:38.093,-0.48413,0.22339,-0.85352;
18:32:38.103,-0.48511,0.21533,-0.81665;
18:32:38.113,-0.49902,0.22437,-0.77905;
18:32:38.123,-0.51758,0.24927,-0.76099;
18:32:38.133,-0.53516,0.27734,-0.77661;
18:32:38.143,-0.53735,0.30200,-0.81274;
18:32:38.153,-0.53442,0.31860,-0.83350;
18:32:38.163,-0.53223,0.32129,-0.83667;
18:32:38.173,-0.53711,0.30835,-0.82471;
18:32:38.183,-0.52832,0.29150,-0.80054;
18:32:38.193,-0.52295,0.27612,-0.78589;
18:32:38.203,-0.51465,0.26392,-0.78442;
18:32:38.213,-0.51270,0.25415,-0.80444;
18:32:38.223,-0.51611,0.24341,-0.83765;
18:32:38.233,-0.50537,0.22339,-0.86523;
18:32:38.243,-0.49561,0.20142,-0.88184;
18:32:38.253,-0.48560,0.18481,-0.87866;
18:32:38.263,-0.48169,0.18042,-0.87402;
18:32:38.273,-0.47949,0.18066,-0.87793;
18:32:38.283,-0.48340,0.17676,-0.88477;
18:32:38.293,-0.48560,0.17993,-0.89258;
18:32:38.303,-0.48169,0.18481,-0.89673;
18:32:38.313,-0.48120,0.20313,-0.89746;
18:32:38.323,-0.48096,0.21729,-0.89429;
18:32:38.333,-0.47705,0.22095,-0.88721;
18:32:38.343,-0.47900,0.22803,-0.88574;
18:32:38.353,-0.47510,0.25708,-0.84424;
18:32:38.363,-0.47046,0.27246,-0.84570;
18:32:38.373,-0.47144,0.27417,-0.84961;
18:32:38.383,-0.47168,0.27588,-0.84912;
18:32:38.393,-0.46777,0.27026,-0.84033;
18:32:38.403,-0.46631,0.26514,-0.83350;
18:32:38.413,-0.45630,0.26953,-0.83789;
18:32:38.423,-0.44995,0.27368,-0.84399;
18:32:38.433,-0.44897,0.27759,-0.85010;
18:32:38.443,-0.44727,0.28345,-0.84717;
18:32:38.453,-0.44653,0.28540,-0.84204;
18:32:38.463,-0.44312,0.28638,-0.83765;
18:32:38.473,-0.43481,0.27808,-0.82861;
18:32:38.483,-0.43506,0.27856,-0.83691;
18:32:38.493,-0.43408,0.29517,-0.83936;
18:32:38.503,-0.44092,0.31812,-0.84326;
18:32:38.513,-0.44971,0.32886,-0.84351;
18:32:38.523,-0.44995,0.32739,-0.83618;
18:32:38.533,-0.45386,0.32300,-0.83179;
18:32:38.543,-0.45557,0.30908,-0.82520;
18:32:38.553,-0.45435,0.29028,-0.81738;
18:32:38.563,-0.44629,0.27759,-0.81860;
18:32:38.573,-0.43848,0.27930,-0.82788;
18:32:38.583,-0.43652,0.29028,-0.84302;
18:32:38.593,-0.43115,0.30396,-0.86353;
18:32:38.603,-0.42896,0.30591,-0.87354;
18:32:38.613,-0.43262,0.30273,-0.87817;
18:32:38.623,-0.43433,0.30078,-0.87988;
18:32:38.633,-0.43530,0.29761,-0.87012;
18:32:38.643,-0.43774,0.29175,-0.85278;
18:32:38.653,-0.43945,0.27905,-0.84692;
18:32:38.663,-0.44727,0.29419,-0.86475;
18:32:38.673,-0.44873,0.29321,-0.86523;
18:32:38.683,-0.45239,0.29102,-0.86182;
18:32:38.693,-0.45435,0.30029,-0.85986;
18:32:38.703,-0.45313,0.30811,-0.86011;
18:32:38.713,-0.44165,0.31250,-0.85986;
18:32:38.723,-0.42896,0.32129,-0.85693;
18:32:38.733,-0.42554,0.32300,-0.85205;
18:32:38.743,-0.41016,0.34424,-0.84155;
18:32:38.753,-0.41284,0.33813,-0.85107;
18:32:38.763,-0.41577,0.33423,-0.85156;
18:32:38.773,-0.42725,0.32739,-0.85132;
18:32:38.783,-0.43604,0.31836,-0.85132;
18:32:38.793,-0.43530,0.30981,-0.84814;
18:32:38.803,-0.43774,0.29761,-0.84814;
18:32:38.813,-0.43774,0.29272,-0.85107;
18:32:38.823,-0.43921,0.28564,-0.84790;
18:32:38.833,-0.43701,0.28198,-0.84546;
18:32:38.843,-0.43384,0.29126,-0.84741;
18:32:38.853,-0.43628,0.29907,-0.85010;
18:32:38.863,-0.43408,0.31299,-0.84424;
18:32:38.873,-0.43213,0.33081,-0.83716;
18:32:38.883,-0.43433,0.33545,-0.83350;
18:32:38.893,-0.43506,0.33862,-0.83057;
18:32:38.903,-0.43042,0.34595,-0.82617;
18:32:38.913,-0.42822,0.35474,-0.82593;
18:32:38.923,-0.42871,0.36060,-0.82910;
18:32:38.933,-0.42578,0.36108,-0.82568;
18:32:38.943,-0.42505,0.36353,-0.82837;
18:32:38.953,-0.42798,0.36426,-0.83496;
18:32:38.963,-0.43066,0.36108,-0.83350;
18:32:38.973,-0.43384,0.35840,-0.83179;
18:32:38.983,-0.43433,0.34888,-0.83008;
18:32:38.993,-0.43530,0.34277,-0.83203;
18:32:39.003,-0.43872,0.33887,-0.83813;
18:32:39.013,-0.43896,0.33350,-0.83716;
18:32:39.023,-0.43652,0.33081,-0.84155;
18:32:39.033,-0.43726,0.32910,-0.84229;
18:32:39.043,-0.43921,0.32837,-0.83472;
18:32:39.053,-0.44189,0.33008,-0.83252;
18:32:39.063,-0.44507,0.33130,-0.83350;
18:32:39.073,-0.44507,0.33154,-0.83032;
18:32:39.083,-0.44482,0.33545,-0.82568;
18:32:39.093,-0.44775,0.33569,-0.82397;
18:32:39.103,-0.44580,0.33667,-0.82129;
18:32:39.113,-0.44507,0.33887,-0.81934;
18:32:39.123,-0.44653,0.33667,-0.81543;
18:32:39.133,-0.44189,0.34253,-0.81665;
18:32:39.143,-0.44604,0.35205,-0.81738;
18:32:39.153,-0.44849,0.35645,-0.81885;
18:32:39.163,-0.45264,0.35913,-0.81543;
18:32:39.173,-0.45532,0.35474,-0.81421;
18:32:39.183,-0.45288,0.35034,-0.81592;
18:32:39.193,-0.45483,0.35205,-0.81396;
18:32:39.203,-0.45996,0.35327,-0.81470;
18:32:39.213,-0.45996,0.35059,-0.81421;
18:32:39.223,-0.45923,0.34766,-0.81421;
18:32:39.233,-0.45776,0.34766,-0.81177;
18:32:39.243,-0.45996,0.35034,-0.81616;
18:32:39.253,-0.45996,0.35254,-0.82129;
18:32:39.263,-0.46094,0.35205,-0.81836;
18:32:39.273,-0.46191,0.34937,-0.81201;
18:32:39.283,-0.46387,0.35400,-0.81396;
18:32:39.293,-0.46484,0.35767,-0.81348;
18:32:39.303,-0.46680,0.35498,-0.80933;
18:32:39.313,-0.46655,0.35962,-0.80981;
18:32:39.323,-0.46606,0.36182,-0.81006;
18:32:39.333,-0.46411,0.36182,-0.80664;
18:32:39.343,-0.46460,0.36401,-0.80420;
18:32:39.353,-0.46143,0.36572,-0.80688;
18:32:39.363,-0.45850,0.36963,-0.80908;
18:32:39.373,-0.46094,0.36914,-0.81104;
18:32:39.383,-0.46216,0.37158,-0.80884;
18:32:39.393,-0.46362,0.37207,-0.80688;
18:32:39.403,-0.46436,0.37061,-0.80786;
18:32:39.413,-0.46216,0.37207,-0.80908;
18:32:39.423,-0.46191,0.37402,-0.81323;
18:32:39.433,-0.46460,0.37329,-0.81079;
18:32:39.443,-0.46167,0.36499,-0.80640;
18:32:39.453,-0.46680,0.35962,-0.80396;
18:32:39.463,-0.46753,0.35815,-0.80469;
18:32:39.473,-0.46924,0.35596,-0.80420;
18:32:39.483,-0.46899,0.35767,-0.80176;
18:32:39.493,-0.46680,0.36108,-0.80249;
18:32:39.503,-0.46533,0.36743,-0.80493;
18:32:39.513,-0.46606,0.36987,-0.80859;
18:32:39.523,-0.46533,0.37158,-0.80811;
18:32:39.533,-0.46387,0.37427,-0.81299;
18:32:39.543,-0.46460,0.37183,-0.81152;
18:32:39.553,-0.46509,0.36719,-0.80640;
18:32:39.563,-0.46631,0.36597,-0.80347;
18:32:39.573,-0.46753,0.36792,-0.79956;
18:32:39.583,-0.46753,0.36377,-0.80029;
18:32:39.593,-0.46606,0.36426,-0.80225;
18:32:39.603,-0.46436,0.36523,-0.80469;
18:32:39.613,-0.46313,0.36450,-0.80908;
18:32:39.623,-0.46216,0.36475,-0.80908;
18:32:39.633,-0.46289,0.36304,-0.80664;
18:32:39.643,-0.46216,0.36328,-0.80981;
18:32:39.653,-0.46265,0.36499,-0.80762;
18:32:39.663,-0.46362,0.36548,-0.80615;
18:32:39.673,-0.46338,0.36377,-0.80493;
18:32:39.683,-0.46680,0.36523,-0.80298;
18:32:39.693,-0.46851,0.36426,-0.80322;
18:32:39.703,-0.46582,0.36206,-0.80371;
18:32:39.713,-0.46655,0.36572,-0.80371;
18:32:39.723,-0.46948,0.37109,-0.80859;
18:32:39.733,-0.46899,0.37451,-0.81470;
18:32:39.743,-0.46973,0.37427,-0.81616;
18:32:39.753,-0.46948,0.36987,-0.81543;
18:32:39.763,-0.46899,0.37354,-0.81885;
18:32:39.773,-0.46997,0.37549,-0.82251;
18:32:39.783,-0.47192,0.37354,-0.82227;
18:32:39.793,-0.47046,0.37671,-0.81714;
18:32:39.803,-0.47046,0.37598,-0.81836;
18:32:39.813,-0.47095,0.37573,-0.82251;
18:32:39.823,-0.47046,0.38037,-0.82446;
18:32:39.833,-0.47021,0.38354,-0.82275;
18:32:39.843,-0.46997,0.37915,-0.81812;
18:32:39.853,-0.46802,0.37329,-0.81763;
18:32:39.863,-0.46729,0.37695,-0.82056;
18:32:39.873,-0.47070,0.38330,-0.82739;
18:32:39.883,-0.47095,0.38550,-0.82422;
18:32:39.893,-0.46899,0.38379,-0.81274;
18:32:39.903,-0.47217,0.37891,-0.80615;
18:32:39.913,-0.47559,0.37646,-0.79810;
18:32:39.923,-0.47852,0.36987,-0.78540;
18:32:39.933,-0.48413,0.36304,-0.77686;
18:32:39.943,-0.48804,0.35693,-0.77271;
18:32:39.953,-0.49268,0.34888,-0.76489;
18:32:39.963,-0.49927,0.34595,-0.75854;
18:32:39.973,-0.50537,0.34619,-0.75830;
18:32:39.983,-0.51050,0.34521,-0.75635;
18:32:39.993,-0.51440,0.34595,-0.75220;
18:32:40.003,-0.51587,0.34644,-0.75244;
18:32:40.013,-0.51343,0.34375,-0.75171;
18:32:40.023,-0.51245,0.34302,-0.74902;
18:32:40.033,-0.51172,0.34668,-0.74902;
18:32:40.043,-0.51465,0.35156,-0.75049;
18:32:40.053,-0.53052,0.39087,-0.73657;
18:32:40.063,-0.54370,0.39844,-0.71265;
18:32:40.073,-0.55078,0.39722,-0.70264;
18:32:40.083,-0.55811,0.39697,-0.69580;
18:32:40.093,-0.56665,0.39648,-0.69214;
18:32:40.103,-0.57153,0.39868,-0.68799;
18:32:40.113,-0.57593,0.40503,-0.68237;
18:32:40.123,-0.58252,0.40649,-0.67603;
18:32:40.133,-0.58301,0.40308,-0.66699;
18:32:40.143,-0.58252,0.39917,-0.66187;
18:32:40.153,-0.58154,0.39429,-0.66382;
18:32:40.163,-0.58594,0.38989,-0.66821;
18:32:40.173,-0.59155,0.38745,-0.66577;
18:32:40.183,-0.59424,0.38525,-0.65991;
18:32:40.193,-0.59961,0.38721,-0.65601;
18:32:40.203,-0.59912,0.38721,-0.64722;
18:32:40.213,-0.60303,0.37500,-0.64136;
18:32:40.223,-0.60913,0.37158,-0.63818;
18:32:40.233,-0.61206,0.38086,-0.63647;
18:32:40.243,-0.61523,0.38550,-0.63477;
18:32:40.253,-0.62915,0.38721,-0.63086;
18:32:40.263,-0.63477,0.39282,-0.62500;
18:32:40.273,-0.64160,0.40088,-0.61890;
18:32:40.283,-0.65356,0.40283,-0.61206;
18:32:40.293,-0.66016,0.41235,-0.60620;
18:32:40.303,-0.66650,0.42383,-0.60425;
18:32:40.313,-0.67407,0.43433,-0.59717;
18:32:40.323,-0.67603,0.44287,-0.58789;
18:32:40.333,-0.67627,0.44678,-0.58081;
18:32:40.343,-0.68262,0.45508,-0.57617;
18:32:40.353,-0.68481,0.47266,-0.54956;
18:32:40.363,-0.69238,0.47925,-0.54272;
18:32:40.373,-0.69824,0.48169,-0.53857;
18:32:40.383,-0.70386,0.48486,-0.53491;
18:32:40.393,-0.70825,0.48608,-0.53125;
18:32:40.403,-0.70703,0.48364,-0.53296;
18:32:40.413,-0.70264,0.48755,-0.53076;
18:32:40.423,-0.69629,0.48901,-0.52930;
18:32:40.433,-0.69312,0.48950,-0.53052;
18:32:40.443,-0.69727,0.49414,-0.52930;
18:32:40.453,-0.70288,0.49658,-0.53638;
18:32:40.463,-0.71143,0.49805,-0.54004;
18:32:40.473,-0.70947,0.49780,-0.53442;
18:32:40.483,-0.71069,0.49854,-0.52832;
18:32:40.493,-0.71240,0.49609,-0.52368;
18:32:40.503,-0.70874,0.49316,-0.51953;
18:32:40.513,-0.70386,0.48389,-0.51343;
18:32:40.523,-0.69897,0.47827,-0.50977;
18:32:40.533,-0.70239,0.48242,-0.50879;
18:32:40.543,-0.70508,0.48242,-0.50659;
18:32:40.553,-0.71118,0.48218,-0.50562;
18:32:40.563,-0.70947,0.48267,-0.50439;
18:32:40.573,-0.71118,0.48071,-0.50098;
18:32:40.583,-0.71167,0.47900,-0.49707;
18:32:40.593,-0.71289,0.47705,-0.49414;
18:32:40.603,-0.71533,0.47803,-0.49438;
18:32:40.613,-0.71265,0.48022,-0.49585;
18:32:40.623,-0.71460,0.48218,-0.49683;
18:32:40.633,-0.71558,0.48633,-0.50171;
18:32:40.643,-0.72607,0.49438,-0.50000;
18:32:40.653,-0.72900,0.50098,-0.49854;
18:32:40.663,-0.72803,0.50317,-0.49780;
18:32:40.673,-0.72778,0.50684,-0.49927;
18:32:40.683,-0.72803,0.51074,-0.49731;
18:32:40.693,-0.72729,0.51123,-0.49902;
18:32:40.703,-0.72607,0.51001,-0.49585;
18:32:40.713,-0.72607,0.51196,-0.49390;
18:32:40.723,-0.72388,0.51416,-0.49072;
18:32:40.733,-0.72241,0.51514,-0.49048;
18:32:40.743,-0.72412,0.51978,-0.49268;
18:32:40.753,-0.72144,0.52466,-0.48975;
18:32:40.763,-0.72046,0.52515,-0.49097;
18:32:40.773,-0.72070,0.52075,-0.49072;
18:32:40.783,-0.72046,0.51416,-0.49121;
18:32:40.793,-0.71948,0.51074,-0.49194;
18:32:40.803,-0.71997,0.50562,-0.49170;
18:32:40.813,-0.72095,0.50122,-0.49390;
18:32:40.823,-0.71899,0.50146,-0.49219;
18:32:40.833,-0.71753,0.50000,-0.49268;
18:32:40.843,-0.71826,0.50024,-0.49878;
18:32:40.853,-0.72046,0.50122,-0.49951;
18:32:40.863,-0.72290,0.50024,-0.49780;
18:32:40.873,-0.72095,0.49951,-0.49658;
18:32:40.883,-0.71777,0.49805,-0.49292;
18:32:40.893,-0.71973,0.49512,-0.49194;
18:32:40.903,-0.72021,0.49438,-0.49292;
18:32:40.913,-0.72070,0.49707,-0.49243;
18:32:40.923,-0.71777,0.49951,-0.49463;
18:32:40.933,-0.71533,0.50269,-0.49805;
18:32:40.943,-0.70410,0.50513,-0.49902;
18:32:40.953,-0.69800,0.50000,-0.49609;
18:32:40.963,-0.69434,0.49634,-0.49365;
18:32:40.973,-0.69556,0.49097,-0.49390;
18:32:40.983,-0.69531,0.48340,-0.48877;
18:32:40.993,-0.69507,0.47607,-0.48413;
18:32:41.003,-0.70020,0.47656,-0.48340;
18:32:41.013,-0.70581,0.48047,-0.48462;
18:32:41.023,-0.70703,0.47852,-0.48291;
18:32:41.033,-0.70996,0.47437,-0.48901;
18:32:41.043,-0.71680,0.47412,-0.49341;
18:32:41.053,-0.72534,0.47974,-0.50098;
18:32:41.063,-0.73096,0.48804,-0.51318;
18:32:41.073,-0.73340,0.49658,-0.51831;
18:32:41.083,-0.73389,0.50293,-0.53076;
18:32:41.093,-0.73096,0.50903,-0.53345;
18:32:41.103,-0.72461,0.51440,-0.53345;
18:32:41.113,-0.71753,0.52002,-0.53467;
18:32:41.123,-0.70850,0.52295,-0.53345;
18:32:41.133,-0.69995,0.52319,-0.53003;
18:32:41.143,-0.69580,0.52026,-0.52490;
18:32:41.153,-0.69360,0.51514,-0.52441;
18:32:41.163,-0.69287,0.50977,-0.52539;
18:32:41.173,-0.69043,0.50732,-0.52222;
18:32:41.183,-0.68628,0.50586,-0.52393;
18:32:41.193,-0.68628,0.50171,-0.52393;
18:32:41.203,-0.68384,0.49609,-0.52344;
18:32:41.213,-0.67944,0.49023,-0.52710;
18:32:41.223,-0.68091,0.48853,-0.53125;
18:32:41.233,-0.68115,0.48730,-0.54224;
18:32:41.243,-0.66919,0.48608,-0.55200;
18:32:41.253,-0.67065,0.48999,-0.56836;
18:32:41.263,-0.66846,0.48779,-0.57129;
18:32:41.273,-0.66724,0.48682,-0.57153;
18:32:41.283,-0.66309,0.48511,-0.57104;
18:32:41.293,-0.65698,0.48511,-0.57446;
18:32:41.303,-0.65430,0.48486,-0.57788;
18:32:41.313,-0.64966,0.48755,-0.58081;
18:32:41.323,-0.64868,0.48804,-0.58032;
18:32:41.333,-0.64697,0.48706,-0.57788;
18:32:41.343,-0.64746,0.49097,-0.58398;
18:32:41.353,-0.64795,0.49121,-0.58423;
18:32:41.363,-0.64844,0.48853,-0.58252;
18:32:41.373,-0.64795,0.48853,-0.58472;
18:32:41.383,-0.64502,0.48682,-0.58911;
18:32:41.393,-0.64233,0.48560,-0.59131;
18:32:41.403,-0.63574,0.47656,-0.58911;
18:32:41.413,-0.62964,0.47119,-0.59521;
18:32:41.423,-0.62378,0.47339,-0.60059;
18:32:41.433,-0.62354,0.47534,-0.60400;
18:32:41.443,-0.62012,0.47705,-0.60815;
18:32:41.453,-0.61157,0.47021,-0.61011;
18:32:41.463,-0.60815,0.46289,-0.61084;
18:32:41.473,-0.60474,0.46265,-0.60767;
18:32:41.483,-0.59668,0.46851,-0.61426;
18:32:41.493,-0.58936,0.47583,-0.62524;
18:32:41.503,-0.58765,0.47632,-0.62842;
18:32:41.513,-0.58887,0.46606,-0.62207;
18:32:41.523,-0.59204,0.45972,-0.61792;
18:32:41.533,-0.59766,0.45679,-0.63428;
18:32:41.543,-0.59375,0.46997,-0.65698;
18:32:41.553,-0.58008,0.47363,-0.66895;
18:32:41.563,-0.56836,0.47485,-0.66968;
18:32:41.573,-0.55786,0.48193,-0.67798;
18:32:41.583,-0.54761,0.48926,-0.68262;
18:32:41.593,-0.53833,0.49902,-0.69067;
18:32:41.603,-0.53442,0.50854,-0.69678;
18:32:41.613,-0.53320,0.51050,-0.69067;
18:32:41.623,-0.52710,0.51123,-0.69556;
18:32:41.633,-0.51270,0.51343,-0.70166;
18:32:41.643,-0.50244,0.51465,-0.70410;
18:32:41.653,-0.49316,0.51660,-0.70117;
18:32:41.663,-0.48413,0.52124,-0.69995;
18:32:41.673,-0.47656,0.52295,-0.70776;
18:32:41.683,-0.46094,0.52612,-0.71509;
18:32:41.693,-0.45117,0.53247,-0.71924;
18:32:41.703,-0.44263,0.54370,-0.72266;
18:32:41.713,-0.43677,0.55444,-0.72437;
18:32:41.723,-0.43042,0.55713,-0.72729;
18:32:41.733,-0.42871,0.55420,-0.72754;
18:32:41.743,-0.42651,0.54712,-0.72485;
18:32:41.753,-0.41675,0.54199,-0.73022;
18:32:41.763,-0.40820,0.54663,-0.73950;
18:32:41.773,-0.40015,0.54468,-0.75098;
18:32:41.783,-0.39355,0.53638,-0.75879;
18:32:41.793,-0.38940,0.52686,-0.76465;
18:32:41.803,-0.38477,0.52271,-0.76294;
18:32:41.813,-0.37915,0.51929,-0.76782;
18:32:41.823,-0.37646,0.50928,-0.77734;
18:32:41.833,-0.37085,0.50342,-0.78882;
18:32:41.843,-0.35693,0.50024,-0.79834;
18:32:41.853,-0.35376,0.49951,-0.81396;
18:32:41.863,-0.35107,0.50098,-0.81787;
18:32:41.873,-0.34863,0.49829,-0.81763;
18:32:41.883,-0.34155,0.49170,-0.81763;
18:32:41.893,-0.33154,0.48950,-0.82080;
18:32:41.903,-0.32104,0.48511,-0.83301;
18:32:41.913,-0.31445,0.48877,-0.83960;
18:32:41.923,-0.31299,0.49048,-0.83740;
18:32:41.933,-0.30493,0.48633,-0.83838;
18:32:41.943,-0.29517,0.48706,-0.84497;
18:32:41.953,-0.28540,0.47998,-0.84961;
18:32:41.963,-0.26563,0.46851,-0.85083;
18:32:41.973,-0.24658,0.46436,-0.85718;
18:32:41.983,-0.23877,0.45630,-0.86450;
18:32:41.993,-0.23315,0.44971,-0.86377;
18:32:42.003,-0.23657,0.45117,-0.86157;
18:32:42.013,-0.23608,0.45166,-0.86304;
18:32:42.023,-0.23120,0.44775,-0.86987;
18:32:42.033,-0.22559,0.43335,-0.87305;
18:32:42.043,-0.21802,0.42944,-0.88110;
18:32:42.053,-0.21411,0.43384,-0.88794;
18:32:42.063,-0.20996,0.43115,-0.89087;
18:32:42.073,-0.20605,0.42163,-0.89502;
18:32:42.083,-0.20190,0.40869,-0.89697;
18:32:42.093,-0.20508,0.40576,-0.89893;
18:32:42.103,-0.21802,0.42212,-0.89941;
18:32:42.113,-0.23340,0.44873,-0.90234;
18:32:42.123,-0.24561,0.45703,-0.90063;
18:32:42.133,-0.21362,0.39966,-0.90698;
18:32:42.143,-0.22314,0.43457,-0.88477;
18:32:42.153,-0.23804,0.45239,-0.88452;
18:32:42.163,-0.23730,0.45483,-0.88110;
18:32:42.173,-0.23950,0.45215,-0.88037;
18:32:42.183,-0.24170,0.44604,-0.88574;
18:32:42.193,-0.24463,0.43359,-0.89673;
18:32:42.203,-0.23071,0.42163,-0.91089;
18:32:42.213,-0.20728,0.40723,-0.91577;
18:32:42.223,-0.20435,0.38940,-0.91772;
18:32:42.233,-0.21680,0.38721,-0.91333;
18:32:42.243,-0.22510,0.39746,-0.90234;
18:32:42.253,-0.23853,0.40991,-0.90356;
18:32:42.263,-0.26050,0.42090,-0.89966;
18:32:42.273,-0.27148,0.42993,-0.91016;
18:32:42.283,-0.27661,0.43286,-0.94214;
18:32:42.293,-0.24146,0.44922,-0.99390;
18:32:42.303,-0.22314,0.46924,-0.99805;
18:32:42.313,-0.23145,0.46899,-0.98999;
18:32:42.323,-0.26123,0.46069,-0.97998;
18:32:42.333,-0.28735,0.46265,-0.96973;
18:32:42.343,-0.30151,0.45776,-0.95630;
18:32:42.353,-0.31006,0.46680,-0.95190;
18:32:42.363,-0.32300,0.47827,-0.94556;
18:32:42.373,-0.32153,0.46362,-0.91846;
18:32:42.383,-0.30566,0.42749,-0.87915;
18:32:42.393,-0.30420,0.38892,-0.83350;
18:32:42.403,-0.30347,0.35742,-0.78442;
18:32:42.413,-0.29956,0.34009,-0.71460;
18:32:42.423,-0.28979,0.32373,-0.65112;
18:32:42.433,-0.28076,0.32886,-0.62891;
18:32:42.443,-0.26392,0.34277,-0.61084;
18:32:42.453,-0.25024,0.33887,-0.59277;
18:32:42.463,-0.24512,0.32324,-0.57666;
18:32:42.473,-0.23511,0.31909,-0.55981;
18:32:42.483,-0.22998,0.32739,-0.54565;
18:32:42.493,-0.23315,0.32544,-0.54053;
18:32:42.503,-0.23462,0.30566,-0.52759;
18:32:42.513,-0.23315,0.28442,-0.51147;
18:32:42.523,-0.23169,0.27368,-0.51050;
18:32:42.533,-0.22729,0.27563,-0.54980;
18:32:42.543,-0.22119,0.30591,-0.64111;
18:32:42.553,-0.22559,0.36670,-0.77075;
18:32:42.563,-0.23364,0.44116,-0.93262;
18:32:42.573,-0.22852,0.53955,-1.09863;
18:32:42.583,-0.20264,0.50806,-1.31519;
18:32:42.593,-0.13843,0.45508,-1.33545;
18:32:42.603,-0.06006,0.45483,-1.28833;
18:32:42.613,-0.05225,0.46655,-1.22290;
18:32:42.623,-0.11450,0.49268,-1.16455;
18:32:42.633,-0.18481,0.50220,-1.10449;
18:32:42.643,-0.22314,0.50513,-1.05249;
18:32:42.653,-0.23779,0.50195,-1.01563;
18:32:42.663,-0.24927,0.49292,-0.97803;
18:32:42.673,-0.25220,0.47803,-0.92310;
18:32:42.683,-0.25659,0.47705,-0.87524;
18:32:42.693,-0.26953,0.49463,-0.80005;
18:32:42.703,-0.25488,0.52441,-0.78345;
18:32:42.713,-0.22876,0.48682,-0.77295;
18:32:42.723,-0.22632,0.48755,-0.77295;
18:32:42.733,-0.23022,0.49170,-0.78540;
18:32:42.743,-0.22827,0.48535,-0.79248;
18:32:42.753,-0.22217,0.47949,-0.81274;
18:32:42.763,-0.21411,0.46802,-0.84277;
18:32:42.773,-0.20898,0.45386,-0.87109;
18:32:42.783,-0.19873,0.45142,-0.90527;
18:32:42.793,-0.18921,0.45850,-0.93457;
18:32:42.803,-0.18945,0.46240,-0.94946;
18:32:42.813,-0.18188,0.46875,-0.95117;
18:32:42.823,-0.18384,0.47656,-0.93286;
18:32:42.833,-0.19507,0.48462,-0.91260;
18:32:42.843,-0.20972,0.49365,-0.89819;
18:32:42.853,-0.22046,0.48950,-0.87964;
18:32:42.863,-0.25342,0.50171,-0.80518;
18:32:42.873,-0.24805,0.51343,-0.81396;
18:32:42.883,-0.24878,0.53247,-0.80762;
18:32:42.893,-0.26514,0.55908,-0.80542;
18:32:42.903,-0.27930,0.57373,-0.80933;
18:32:42.913,-0.28906,0.54126,-0.82324;
18:32:42.923,-0.29321,0.54736,-0.82227;
18:32:42.933,-0.29443,0.54712,-0.82031;
18:32:42.943,-0.28198,0.53979,-0.81958;
18:32:42.953,-0.26099,0.53369,-0.82178;
18:32:42.963,-0.25073,0.53076,-0.80688;
18:32:42.973,-0.25220,0.53638,-0.79346;
18:32:42.983,-0.24731,0.54663,-0.78540;
18:32:42.993,-0.24365,0.54492,-0.78516;
18:32:43.003,-0.24072,0.52881,-0.78955;
18:32:43.013,-0.23950,0.51538,-0.79492;
18:32:43.023,-0.24268,0.52002,-0.78564;
18:32:43.033,-0.24878,0.52710,-0.78418;
18:32:43.043,-0.26147,0.52344,-0.79224;
18:32:43.053,-0.26074,0.51953,-0.79443;
18:32:43.063,-0.26392,0.51733,-0.79932;
18:32:43.073,-0.27246,0.52051,-0.79565;
18:32:43.083,-0.27344,0.52661,-0.79443;
18:32:43.093,-0.28564,0.53003,-0.79663;
18:32:43.103,-0.29272,0.52051,-0.80103;
18:32:43.113,-0.29980,0.51196,-0.80200;
18:32:43.123,-0.31250,0.50879,-0.79834;
18:32:43.133,-0.32642,0.50610,-0.79199;
18:32:43.143,-0.34399,0.50391,-0.78711;
18:32:43.153,-0.36084,0.50317,-0.78931;
18:32:43.163,-0.36646,0.50610,-0.79102;
18:32:43.173,-0.36133,0.50952,-0.79541;
18:32:43.183,-0.35278,0.51318,-0.79736;
18:32:43.193,-0.33691,0.51953,-0.78857;
18:32:43.203,-0.32080,0.53320,-0.77832;
18:32:43.213,-0.28906,0.60010,-0.78833;
18:32:43.223,-0.27002,0.58813,-0.79150;
18:32:43.233,-0.27100,0.58447,-0.78271;
18:32:43.243,-0.27515,0.58350,-0.77588;
18:32:43.253,-0.28027,0.58032,-0.76978;
18:32:43.263,-0.28516,0.57544,-0.76611;
18:32:43.273,-0.28613,0.56787,-0.76245;
18:32:43.283,-0.28833,0.56030,-0.76025;
18:32:43.293,-0.29761,0.55591,-0.75732;
18:32:43.303,-0.30347,0.54858,-0.75903;
18:32:43.313,-0.31104,0.53198,-0.76416;
18:32:43.323,-0.31958,0.52075,-0.77002;
18:32:43.333,-0.31836,0.51855,-0.77881;
18:32:43.343,-0.31689,0.52295,-0.77979;
18:32:43.353,-0.30859,0.52808,-0.78223;
18:32:43.363,-0.29639,0.53149,-0.78125;
18:32:43.373,-0.29346,0.53442,-0.77124;
18:32:43.383,-0.30127,0.54272,-0.76953;
18:32:43.393,-0.30737,0.56616,-0.77466;
18:32:43.403,-0.30933,0.57471,-0.78174;
18:32:43.413,-0.30664,0.56470,-0.78540;
18:32:43.423,-0.30469,0.55273,-0.78027;
18:32:43.433,-0.31274,0.54956,-0.76929;
18:32:43.443,-0.32104,0.55713,-0.76392;
18:32:43.453,-0.33130,0.56104,-0.76343;
18:32:43.463,-0.33765,0.56177,-0.75415;
18:32:43.473,-0.33887,0.56201,-0.74902;
18:32:43.483,-0.34644,0.55713,-0.73853;
18:32:43.493,-0.35669,0.54565,-0.72583;
18:32:43.503,-0.36841,0.54590,-0.70508;
18:32:43.513,-0.36768,0.53931,-0.70557;
18:32:43.523,-0.36475,0.54541,-0.70947;
18:32:43.533,-0.36743,0.54785,-0.71240;
18:32:43.543,-0.36523,0.55249,-0.71899;
18:32:43.553,-0.36377,0.55933,-0.72510;
18:32:43.563,-0.36548,0.56323,-0.73169;
18:32:43.573,-0.36401,0.56885,-0.73584;
18:32:43.583,-0.36182,0.57788,-0.73975;
18:32:43.593,-0.35889,0.58521,-0.74683;
18:32:43.603,-0.35254,0.59033,-0.75293;
18:32:43.613,-0.34644,0.60132,-0.75854;
18:32:43.623,-0.34082,0.60327,-0.75757;
18:32:43.633,-0.33545,0.60156,-0.75317;
18:32:43.643,-0.33447,0.60645,-0.75049;
18:32:43.653,-0.33789,0.60498,-0.74438;
18:32:43.663,-0.34033,0.60522,-0.73779;
18:32:43.673,-0.33789,0.60352,-0.73364;
18:32:43.683,-0.33496,0.60132,-0.72607;
18:32:43.693,-0.33569,0.59229,-0.72559;
18:32:43.703,-0.33179,0.58179,-0.72510;
18:32:43.713,-0.32886,0.57642,-0.72827;
18:32:43.723,-0.33203,0.57251,-0.73193;
18:32:43.733,-0.33496,0.57056,-0.73267;
18:32:43.743,-0.33691,0.56909,-0.73608;
18:32:43.753,-0.34131,0.56128,-0.73413;
18:32:43.763,-0.34668,0.55444,-0.74097;
18:32:43.773,-0.34814,0.55029,-0.74561;
18:32:43.783,-0.35522,0.55200,-0.74976;
18:32:43.793,-0.37402,0.55688,-0.74902;
18:32:43.803,-0.38013,0.55005,-0.74902;
18:32:43.813,-0.37769,0.55493,-0.75586;
18:32:43.823,-0.37378,0.55420,-0.75488;
18:32:43.833,-0.37500,0.55493,-0.74707;
18:32:43.843,-0.37842,0.56421,-0.74194;
18:32:43.853,-0.37769,0.57129,-0.73853;
18:32:43.863,-0.37354,0.57471,-0.73389;
18:32:43.873,-0.36865,0.57300,-0.73145;
18:32:43.883,-0.36304,0.57446,-0.73340;
18:32:43.893,-0.35767,0.57886,-0.73096;
18:32:43.903,-0.35327,0.58472,-0.73120;
18:32:43.913,-0.34595,0.58838,-0.73462;
18:32:43.923,-0.33594,0.58789,-0.73755;
18:32:43.933,-0.32568,0.58276,-0.74048;
18:32:43.943,-0.31689,0.57446,-0.74341;
18:32:43.953,-0.31030,0.56836,-0.74463;
18:32:43.963,-0.30981,0.56396,-0.74438;
18:32:43.973,-0.31738,0.56079,-0.73877;
18:32:43.983,-0.33008,0.56006,-0.73071;
18:32:43.993,-0.33643,0.55664,-0.73633;
18:32:44.003,-0.34717,0.54370,-0.73999;
18:32:44.013,-0.36719,0.52832,-0.73975;
18:32:44.023,-0.38599,0.52734,-0.73901;
18:32:44.033,-0.40112,0.53662,-0.73267;
18:32:44.043,-0.41528,0.53809,-0.73413;
18:32:44.053,-0.41577,0.53540,-0.73999;
18:32:44.063,-0.40015,0.53564,-0.74121;
18:32:44.073,-0.38696,0.54663,-0.73828;
18:32:44.083,-0.37744,0.56128,-0.73657;
18:32:44.093,-0.34546,0.58398,-0.73828;
18:32:44.103,-0.31128,0.58472,-0.74536;
18:32:44.113,-0.29785,0.58203,-0.74683;
18:32:44.123,-0.29175,0.58008,-0.75171;
18:32:44.133,-0.29224,0.57324,-0.75415;
18:32:44.143,-0.29883,0.56738,-0.74976;
18:32:44.153,-0.30542,0.56055,-0.74512;
18:32:44.163,-0.28882,0.55664,-0.74463;
18:32:44.173,-0.29639,0.54028,-0.74634;
18:32:44.183,-0.32153,0.52319,-0.75122;
18:32:44.193,-0.32446,0.51465,-0.75610;
18:32:44.203,-0.34277,0.50610,-0.75122;
18:32:44.213,-0.36353,0.50830,-0.74658;
18:32:44.223,-0.39014,0.51099,-0.74634;
18:32:44.233,-0.40601,0.51294,-0.74341;
18:32:44.243,-0.40527,0.51440,-0.74292;
18:32:44.253,-0.40942,0.51538,-0.74048;
18:32:44.263,-0.41748,0.52002,-0.73584;
18:32:44.273,-0.42163,0.52686,-0.73413;
18:32:44.283,-0.42383,0.53320,-0.72583;
18:32:44.293,-0.42725,0.53882,-0.71826;
18:32:44.303,-0.43164,0.54565,-0.71045;
18:32:44.313,-0.43701,0.55127,-0.71045;
18:32:44.323,-0.44043,0.54517,-0.71802;
18:32:44.333,-0.43433,0.53784,-0.71973;
18:32:44.343,-0.43384,0.54028,-0.71655;
18:32:44.353,-0.43823,0.55469,-0.71606;
18:32:44.363,-0.44629,0.57104,-0.71826;
18:32:44.373,-0.45142,0.57837,-0.71875;
18:32:44.383,-0.42383,0.59253,-0.70093;
18:32:44.393,-0.39111,0.62769,-0.70532;
18:32:44.403,-0.38501,0.63159,-0.70068;
18:32:44.413,-0.38159,0.62720,-0.70093;
18:32:44.423,-0.37598,0.62305,-0.69995;
18:32:44.433,-0.37598,0.61841,-0.68896;
18:32:44.443,-0.38184,0.61230,-0.68286;
18:32:44.453,-0.39087,0.61694,-0.67651;
18:32:44.463,-0.39795,0.62500,-0.67261;
18:32:44.473,-0.40332,0.62378,-0.66943;
18:32:44.483,-0.40796,0.60913,-0.66772;
18:32:44.493,-0.40698,0.59326,-0.67432;
18:32:44.503,-0.41235,0.58813,-0.67700;
18:32:44.513,-0.42603,0.58447,-0.68066;
18:32:44.523,-0.43799,0.58521,-0.68262;
18:32:44.533,-0.43457,0.58643,-0.68921;
18:32:44.543,-0.43604,0.58252,-0.69336;
18:32:44.553,-0.44360,0.57617,-0.69092;
18:32:44.563,-0.43896,0.57446,-0.69238;
18:32:44.573,-0.44409,0.57861,-0.68921;
18:32:44.583,-0.45044,0.57910,-0.68213;
18:32:44.593,-0.45215,0.57959,-0.67749;
18:32:44.603,-0.44800,0.57837,-0.67505;
18:32:44.613,-0.44189,0.58252,-0.67310;
18:32:44.623,-0.43726,0.59448,-0.67773;
18:32:44.633,-0.42944,0.60815,-0.68091;
18:32:44.643,-0.42651,0.60962,-0.68018;
18:32:44.653,-0.42163,0.60815,-0.67529;
18:32:44.663,-0.41553,0.60693,-0.67432;
18:32:44.673,-0.39771,0.60327,-0.68091;
18:32:44.683,-0.38892,0.62109,-0.68628;
18:32:44.693,-0.38770,0.61133,-0.68359;
18:32:44.703,-0.38623,0.60205,-0.67920;
18:32:44.713,-0.39038,0.60303,-0.67896;
18:32:44.723,-0.40430,0.60400,-0.67651;
18:32:44.733,-0.41724,0.59961,-0.67700;
18:32:44.743,-0.41748,0.58862,-0.68286;
18:32:44.753,-0.41748,0.58203,-0.68188;
18:32:44.763,-0.42163,0.58301,-0.68286;
18:32:44.773,-0.43262,0.58228,-0.68652;
18:32:44.783,-0.44385,0.58203,-0.68164;
18:32:44.793,-0.45190,0.57227,-0.67505;
18:32:44.803,-0.46289,0.56274,-0.66797;
18:32:44.813,-0.47485,0.56079,-0.65845;
18:32:44.823,-0.48364,0.55688,-0.65430;
18:32:44.833,-0.49731,0.55322,-0.65552;
18:32:44.843,-0.51099,0.55371,-0.66040;
18:32:44.853,-0.51953,0.55469,-0.67261;
18:32:44.863,-0.52124,0.55444,-0.67456;
18:32:44.873,-0.51880,0.55737,-0.67261;
18:32:44.883,-0.51953,0.57422,-0.67554;
18:32:44.893,-0.51855,0.59180,-0.67114;
18:32:44.903,-0.51343,0.59888,-0.67212;
18:32:44.913,-0.50562,0.61157,-0.67725;
18:32:44.923,-0.49512,0.63257,-0.68481;
18:32:44.933,-0.48779,0.64893,-0.69678;
18:32:44.943,-0.48120,0.65356,-0.70435;
18:32:44.953,-0.47559,0.65015,-0.70605;
18:32:44.963,-0.47290,0.64575,-0.68481;
18:32:44.973,-0.47461,0.66650,-0.67236;
18:32:44.983,-0.46973,0.65942,-0.64624;
18:32:44.993,-0.46655,0.65674,-0.62085;
18:32:45.003,-0.46680,0.64185,-0.61597;
18:32:45.013,-0.46851,0.62402,-0.63501;
18:32:45.023,-0.47021,0.62695,-0.64185;
18:32:45.033,-0.47974,0.63892,-0.64429;
18:32:45.043,-0.48364,0.64355,-0.65479;
18:32:45.053,-0.48560,0.63940,-0.65332;
18:32:45.063,-0.48706,0.61938,-0.61816;
18:32:45.073,-0.48535,0.57471,-0.59155;
18:32:45.083,-0.48755,0.52539,-0.57568;
18:32:45.093,-0.49341,0.46680,-0.57349;
18:32:45.103,-0.48779,0.40991,-0.57788;
18:32:45.113,-0.47876,0.38354,-0.58838;
18:32:45.123,-0.47168,0.37109,-0.61865;
18:32:45.133,-0.46899,0.35742,-0.65283;
18:32:45.143,-0.46802,0.32886,-0.69751;
18:32:45.153,-0.46729,0.28906,-0.74341;
18:32:45.163,-0.46655,0.23999,-0.77197;
18:32:45.173,-0.47217,0.19897,-0.79932;
18:32:45.183,-0.48096,0.16406,-0.82446;
18:32:45.193,-0.48535,0.14331,-0.84668;
18:32:45.203,-0.49219,0.13525,-0.85522;
18:32:45.213,-0.49243,0.12061,-0.85889;
18:32:45.223,-0.48535,0.10107,-0.86523;
18:32:45.233,-0.47314,0.10034,-0.88501;
18:32:45.243,-0.46899,0.13257,-0.90234;
18:32:45.253,-0.47095,0.15039,-0.91016;
18:32:45.263,-0.47778,0.15405,-0.91650;
18:32:45.273,-0.48096,0.26221,-0.85376;
18:32:45.283,-0.49121,0.33521,-0.75635;
18:32:45.293,-0.49121,0.41431,-0.73071;
18:32:45.303,-0.50000,0.49219,-0.71729;
18:32:45.313,-0.51563,0.54834,-0.71191;
18:32:45.323,-0.52368,0.58057,-0.71973;
18:32:45.333,-0.51733,0.60742,-0.72363;
18:32:45.343,-0.50049,0.64209,-0.74512;
18:32:45.353,-0.49634,0.64209,-0.74487;
18:32:45.363,-0.49194,0.62769,-0.73145;
18:32:45.373,-0.48901,0.61108,-0.71875;
18:32:45.383,-0.49048,0.58521,-0.71411;
18:32:45.393,-0.49048,0.55029,-0.70850;
18:32:45.403,-0.48901,0.51660,-0.71582;
18:32:45.413,-0.48877,0.48853,-0.71704;
18:32:45.423,-0.48657,0.42871,-0.72729;
18:32:45.433,-0.48291,0.40894,-0.73877;
18:32:45.443,-0.47656,0.39209,-0.75659;
18:32:45.453,-0.46509,0.37671,-0.77563;
18:32:45.463,-0.46069,0.35913,-0.78833;
18:32:45.473,-0.46558,0.34814,-0.79614;
18:32:45.483,-0.46729,0.34839,-0.79883;
18:32:45.493,-0.46924,0.35474,-0.79199;
18:32:45.503,-0.47485,0.35571,-0.78320;
18:32:45.513,-0.47681,0.35596,-0.78271;
18:32:45.523,-0.47388,0.36035,-0.78540;
18:32:45.533,-0.47266,0.36597,-0.78613;
18:32:45.543,-0.47559,0.37305,-0.79126;
18:32:45.553,-0.47607,0.38037,-0.80688;
18:32:45.563,-0.47998,0.39063,-0.80225;
18:32:45.573,-0.47754,0.40039,-0.79980;
18:32:45.583,-0.47534,0.40601,-0.80200;
18:32:45.593,-0.46997,0.40454,-0.80688;
18:32:45.603,-0.46094,0.40210,-0.80591;
18:32:45.613,-0.45215,0.39795,-0.79785;
18:32:45.623,-0.44873,0.39917,-0.79150;
18:32:45.633,-0.44824,0.40283,-0.78516;
18:32:45.643,-0.44800,0.40869,-0.77368;
18:32:45.653,-0.44800,0.41406,-0.76880;
18:32:45.663,-0.45313,0.41699,-0.76123;
18:32:45.673,-0.45825,0.41431,-0.75513;
18:32:45.683,-0.46118,0.41431,-0.75537;
18:32:45.693,-0.46460,0.41138,-0.75830;
18:32:45.703,-0.46533,0.40161,-0.76196;
18:32:45.713,-0.46509,0.39624,-0.76245;
18:32:45.723,-0.46411,0.39502,-0.76563;
18:32:45.733,-0.46631,0.40332,-0.77197;
18:32:45.743,-0.46924,0.40942,-0.77295;
18:32:45.753,-0.47021,0.41602,-0.77612;
18:32:45.763,-0.46899,0.41772,-0.78296;
18:32:45.773,-0.47192,0.41577,-0.78418;
18:32:45.783,-0.47314,0.41626,-0.78394;
18:32:45.793,-0.47729,0.41675,-0.77856;
18:32:45.803,-0.48315,0.41919,-0.77417;
18:32:45.813,-0.48657,0.41675,-0.77271;
18:32:45.823,-0.48633,0.41382,-0.76318;
18:32:45.833,-0.48535,0.41162,-0.76147;
18:32:45.843,-0.48364,0.41309,-0.76172;
18:32:45.853,-0.47876,0.42212,-0.76440;
18:32:45.863,-0.47583,0.43433,-0.76563;
18:32:45.873,-0.47632,0.43652,-0.76123;
18:32:45.883,-0.47681,0.43506,-0.76294;
18:32:45.893,-0.47607,0.43530,-0.76782;
18:32:45.903,-0.47559,0.43579,-0.76587;
18:32:45.913,-0.47461,0.43994,-0.76270;
18:32:45.923,-0.47241,0.43945,-0.76074;
18:32:45.933,-0.47485,0.44189,-0.76587;
18:32:45.943,-0.47656,0.44678,-0.76855;
18:32:45.953,-0.47510,0.44800,-0.76904;
18:32:45.963,-0.47290,0.45117,-0.77222;
18:32:45.973,-0.46997,0.44971,-0.77173;
18:32:45.983,-0.46582,0.44312,-0.76758;
18:32:45.993,-0.46484,0.44141,-0.76514;
18:32:46.003,-0.46460,0.44458,-0.76123;
18:32:46.013,-0.46460,0.44434,-0.75684;
18:32:46.023,-0.47095,0.44019,-0.75317;
18:32:46.033,-0.47681,0.44141,-0.75366;
18:32:46.043,-0.47925,0.44800,-0.75928;
18:32:46.053,-0.47876,0.44727,-0.76636;
18:32:46.063,-0.47119,0.44116,-0.77661;
18:32:46.073,-0.46265,0.43848,-0.77515;
18:32:46.083,-0.45898,0.43896,-0.77075;
18:32:46.093,-0.45264,0.44604,-0.77295;
18:32:46.103,-0.44141,0.45215,-0.77905;
18:32:46.113,-0.43237,0.44971,-0.78589;
18:32:46.123,-0.42578,0.44214,-0.78662;
18:32:46.133,-0.42212,0.43481,-0.78589;
18:32:46.143,-0.45313,0.43164,-0.76318;
18:32:46.153,-0.46436,0.44287,-0.77148;
18:32:46.163,-0.47363,0.44141,-0.77344;
18:32:46.173,-0.47925,0.43579,-0.77930;
18:32:46.183,-0.48169,0.42871,-0.78027;
18:32:46.193,-0.48511,0.41577,-0.77539;
18:32:46.203,-0.48560,0.41577,-0.76587;
18:32:46.213,-0.48511,0.41504,-0.75684;
18:32:46.223,-0.48511,0.41357,-0.75293;
18:32:46.233,-0.48315,0.42212,-0.74829;
18:32:46.243,-0.48169,0.43799,-0.74805;
18:32:46.253,-0.48145,0.45728,-0.74902;
18:32:46.263,-0.48267,0.46558,-0.74731;
18:32:46.273,-0.47754,0.47144,-0.74854;
18:32:46.283,-0.47266,0.48096,-0.74731;
18:32:46.293,-0.47241,0.48560,-0.74585;
18:32:46.303,-0.46851,0.48682,-0.74316;
18:32:46.313,-0.46362,0.48877,-0.73950;
18:32:46.323,-0.45972,0.49023,-0.74219;
18:32:46.333,-0.45923,0.48804,-0.74341;
18:32:46.343,-0.45923,0.48657,-0.74854;
18:32:46.353,-0.45898,0.48218,-0.75464;
18:32:46.363,-0.46167,0.47827,-0.75757;
18:32:46.373,-0.46191,0.47656,-0.76392;
18:32:46.383,-0.46289,0.46899,-0.76587;
18:32:46.393,-0.46094,0.46191,-0.77197;
18:32:46.403,-0.45557,0.45850,-0.78296;
18:32:46.413,-0.45654,0.45532,-0.78662;
18:32:46.423,-0.45679,0.44971,-0.79053;
18:32:46.433,-0.45459,0.44360,-0.78638;
18:32:46.443,-0.45020,0.44458,-0.77686;
18:32:46.453,-0.45117,0.44873,-0.77051;
18:32:46.463,-0.45190,0.44458,-0.76343;
18:32:46.473,-0.45093,0.44556,-0.75879;
18:32:46.483,-0.45044,0.44873,-0.75464;
18:32:46.493,-0.45288,0.45093,-0.75317;
18:32:46.503,-0.45435,0.45215,-0.75684;
18:32:46.513,-0.45313,0.45068,-0.75439;
18:32:46.523,-0.45386,0.44922,-0.75781;
18:32:46.533,-0.45459,0.44507,-0.75781;
18:32:46.543,-0.45728,0.44019,-0.75684;
18:32:46.553,-0.45898,0.43604,-0.76001;
18:32:46.563,-0.45923,0.43408,-0.75562;
18:32:46.573,-0.45557,0.43555,-0.76172;
18:32:46.583,-0.45850,0.44019,-0.76807;
18:32:46.593,-0.45972,0.44092,-0.77002;
18:32:46.603,-0.45776,0.44189,-0.77319;
18:32:46.613,-0.46167,0.44287,-0.77197;
18:32:46.623,-0.46289,0.44360,-0.77295;
18:32:46.633,-0.45898,0.43799,-0.77100;
18:32:46.643,-0.45020,0.43433,-0.77344;
18:32:46.653,-0.44092,0.43213,-0.77686;
18:32:46.663,-0.44189,0.43555,-0.77734;
18:32:46.673,-0.43896,0.44409,-0.77930;
18:32:46.683,-0.43213,0.45313,-0.78174;
18:32:46.693,-0.43457,0.46094,-0.78467;
18:32:46.703,-0.43457,0.45801,-0.78271;
18:32:46.713,-0.43018,0.45825,-0.78003;
18:32:46.723,-0.42676,0.46094,-0.77759;
18:32:46.733,-0.43091,0.46362,-0.77124;
18:32:46.743,-0.43677,0.45654,-0.77026;
18:32:46.753,-0.44238,0.45410,-0.77637;
18:32:46.763,-0.44141,0.44946,-0.77808;
18:32:46.773,-0.44043,0.44531,-0.78418;
18:32:46.783,-0.43799,0.44409,-0.78711;
18:32:46.793,-0.43726,0.44409,-0.78711;
18:32:46.803,-0.43555,0.43945,-0.78906;
18:32:46.813,-0.43335,0.43848,-0.78809;
18:32:46.823,-0.43335,0.44238,-0.79053;
18:32:46.833,-0.43237,0.44409,-0.78662;
18:32:46.843,-0.43311,0.44531,-0.78149;
18:32:46.853,-0.43164,0.44629,-0.77783;
18:32:46.863,-0.43140,0.44849,-0.77344;
18:32:46.873,-0.43433,0.45410,-0.77637;
18:32:46.883,-0.43896,0.46045,-0.77783;
18:32:46.893,-0.44116,0.45776,-0.77759;
18:32:46.903,-0.44165,0.45581,-0.78076;
18:32:46.913,-0.43896,0.45459,-0.78125;
18:32:46.923,-0.43555,0.45264,-0.77539;
18:32:46.933,-0.43896,0.45337,-0.77563;
18:32:46.943,-0.44141,0.45313,-0.77441;
18:32:46.953,-0.44287,0.45142,-0.77246;
18:32:46.963,-0.44287,0.45020,-0.77393;
18:32:46.973,-0.43921,0.45239,-0.77466;
18:32:46.983,-0.43896,0.45654,-0.77319;
18:32:46.993,-0.43433,0.44385,-0.76733;
18:32:47.003,-0.43408,0.44360,-0.76929;
18:32:47.013,-0.43481,0.44067,-0.76855;
18:32:47.023,-0.43750,0.44043,-0.76587;
18:32:47.033,-0.43945,0.44531,-0.76245;
18:32:47.043,-0.44238,0.44531,-0.76001;
18:32:47.053,-0.44189,0.43677,-0.75928;
18:32:47.063,-0.43896,0.43481,-0.76099;
18:32:47.073,-0.43848,0.44141,-0.77148;
18:32:47.083,-0.44458,0.44922,-0.78076;
18:32:47.093,-0.44800,0.45361,-0.78564;
18:32:47.103,-0.44897,0.45142,-0.78662;
18:32:47.113,-0.45313,0.44727,-0.78906;
18:32:47.123,-0.44995,0.44092,-0.79224;
18:32:47.133,-0.45142,0.43652,-0.78564;
18:32:47.143,-0.45288,0.43506,-0.77612;
18:32:47.153,-0.45435,0.43481,-0.76978;
18:32:47.163,-0.45630,0.43774,-0.77026;
18:32:47.173,-0.45435,0.44141,-0.76904;
18:32:47.183,-0.45386,0.44141,-0.77173;
18:32:47.193,-0.45435,0.44360,-0.77295;
18:32:47.203,-0.45435,0.44336,-0.76953;
18:32:47.213,-0.45215,0.43896,-0.76733;
18:32:47.223,-0.45093,0.43604,-0.75928;
18:32:47.233,-0.44873,0.43896,-0.75732;
18:32:47.243,-0.44629,0.44751,-0.76172;
18:32:47.253,-0.44360,0.45630,-0.76245;
18:32:47.263,-0.44165,0.46240,-0.76880;
18:32:47.273,-0.44238,0.46338,-0.77222;
18:32:47.283,-0.44312,0.46313,-0.76807;
18:32:47.293,-0.45508,0.45752,-0.76807;
18:32:47.303,-0.45728,0.44702,-0.77124;
18:32:47.313,-0.45947,0.44580,-0.76978;
18:32:47.323,-0.45825,0.43970,-0.76538;
18:32:47.333,-0.45703,0.44043,-0.76685;
18:32:47.343,-0.45605,0.44775,-0.77173;
18:32:47.353,-0.45142,0.45117,-0.77393;
18:32:47.363,-0.45166,0.44849,-0.77295;
18:32:47.373,-0.45190,0.44824,-0.77759;
18:32:47.383,-0.45093,0.44653,-0.77637;
18:32:47.393,-0.45044,0.44702,-0.77441;
18:32:47.403,-0.45142,0.45093,-0.77246;
18:32:47.413,-0.45410,0.45044,-0.76758;
18:32:47.423,-0.45410,0.45410,-0.76636;
18:32:47.433,-0.45581,0.45801,-0.76416;
18:32:47.443,-0.45630,0.45532,-0.76392;
18:32:47.453,-0.45435,0.44873,-0.76343;
18:32:47.463,-0.45020,0.44849,-0.76563;
18:32:47.473,-0.44849,0.45654,-0.76709;
18:32:47.483,-0.44897,0.45605,-0.76855;
18:32:47.493,-0.44482,0.45386,-0.77368;
18:32:47.503,-0.44287,0.45410,-0.77734;
18:32:47.513,-0.44458,0.45044,-0.77856;
18:32:47.523,-0.44873,0.44897,-0.77881;
18:32:47.533,-0.44873,0.44971,-0.77710;
18:32:47.543,-0.44995,0.44751,-0.77271;
18:32:47.553,-0.45264,0.44238,-0.76709;
18:32:47.563,-0.45190,0.43774,-0.76465;
18:32:47.573,-0.45215,0.43726,-0.76221;
18:32:47.583,-0.45288,0.44312,-0.77026;
18:32:47.593,-0.44775,0.45605,-0.77515;
18:32:47.603,-0.44775,0.45288,-0.77930;
18:32:47.613,-0.44702,0.45264,-0.78101;
18:32:47.623,-0.44629,0.45288,-0.77588;
18:32:47.633,-0.44727,0.44385,-0.76978;
18:32:47.643,-0.44678,0.43896,-0.76489;
18:32:47.653,-0.44702,0.43652,-0.76758;
18:32:47.663,-0.44922,0.43530,-0.76807;
18:32:47.673,-0.45142,0.43628,-0.76831;
18:32:47.683,-0.44751,0.43994,-0.77441;
18:32:47.693,-0.44653,0.44751,-0.77539;
18:32:47.703,-0.44922,0.45142,-0.77905;
