time,acc_x,acc_y,acc_z
18:22:13.552,-1.00122,0.08887,-0.01099;
18:22:13.562,-1.00220,0.09106,-0.01392;
18:22:13.572,-1.00342,0.09204,-0.01514;
18:22:13.582,-1.00464,0.09326,-0.01440;
18:22:13.592,-1.00513,0.09668,-0.01416;
18:22:13.602,-1.00366,0.09302,-0.01367;
18:22:13.612,-1.00513,0.08984,-0.01343;
18:22:13.622,-1.00439,0.09009,-0.01392;
18:22:13.632,-1.00195,0.08838,-0.01440;
18:22:13.642,-1.00098,0.08936,-0.01245;
18:22:13.652,-1.00244,0.09180,-0.01123;
18:22:13.662,-1.00195,0.09229,-0.01440;
18:22:13.672,-1.00146,0.09717,-0.01196;
18:22:13.682,-1.00293,0.09790,-0.01074;
18:22:13.692,-1.00317,0.09399,-0.01392;
18:22:13.702,-1.00586,0.09326,-0.01001;
18:22:13.712,-1.00317,0.09302,-0.01074;
18:22:13.722,-1.00146,0.09692,-0.01416;
18:22:13.732,-1.00342,0.09424,-0.01221;
18:22:13.742,-1.00537,0.09253,-0.01123;
18:22:13.752,-1.00537,0.09204,-0.01123;
18:22:13.762,-1.00317,0.09131,-0.01099;
18:22:13.772,-1.00391,0.09082,-0.01196;
18:22:13.782,-1.00269,0.09473,-0.01123;
18:22:13.792,-1.00366,0.09766,-0.01172;
18:22:13.802,-1.00244,0.09448,-0.01099;
18:22:13.812,-1.00244,0.09448,-0.01001;
18:22:13.822,-1.00195,0.09717,-0.01392;
18:22:13.832,-1.00220,0.09546,-0.01294;
18:22:13.842,-1.00220,0.09546,-0.01270;
18:22:13.852,-1.00220,0.09546,-0.01367;
18:22:13.862,-1.00366,0.09448,-0.00977;
18:22:13.872,-1.00439,0.09570,-0.00781;
18:22:13.882,-1.00317,0.09448,-0.00903;
18:22:13.892,-1.00488,0.09546,-0.01318;
18:22:13.902,-1.00415,0.09717,-0.01270;
18:22:13.912,-1.00220,0.09204,-0.00928;
18:22:13.922,-1.00269,0.09521,-0.01099;
18:22:13.932,-1.00342,0.09692,-0.01099;
18:22:13.942,-1.00317,0.09546,-0.01099;
18:22:13.952,-1.00366,0.09619,-0.01099;
18:22:13.962,-1.00269,0.09546,-0.01196;
18:22:13.972,-1.00293,0.09399,-0.00952;
18:22:13.982,-1.00342,0.09595,-0.01001;
18:22:13.992,-1.00317,0.09668,-0.01245;
18:22:14.002,-1.00366,0.09253,-0.00903;
18:22:14.012,-1.00269,0.09009,-0.00879;
18:22:14.022,-1.00195,0.09326,-0.01025;
18:22:14.032,-1.00317,0.09229,-0.00806;
18:22:14.042,-1.00391,0.09546,-0.01025;
18:22:14.052,-1.00391,0.09619,-0.01074;
18:22:14.062,-1.00244,0.09912,-0.01099;
18:22:14.072,-1.00464,0.09351,-0.00781;
18:22:14.082,-1.00391,0.09131,-0.00659;
18:22:14.092,-1.00391,0.08716,-0.00806;
18:22:14.102,-1.00342,0.09082,-0.01123;
18:22:14.112,-1.00415,0.09375,-0.01099;
18:22:14.122,-1.00269,0.09448,-0.00903;
18:22:14.132,-1.00220,0.09741,-0.00854;
18:22:14.142,-1.00415,0.09766,-0.00806;
18:22:14.152,-1.00342,0.10010,-0.01050;
18:22:14.162,-1.00439,0.10059,-0.01001;
18:22:14.172,-1.00415,0.09961,-0.01099;
18:22:14.182,-1.00244,0.10254,-0.01123;
18:22:14.192,-1.00366,0.10376,-0.01123;
18:22:14.202,-1.00195,0.10547,-0.01294;
18:22:14.212,-1.00244,0.10205,-0.01050;
18:22:14.222,-1.00244,0.09961,-0.01123;
18:22:14.232,-1.00269,0.10229,-0.01172;
18:22:14.242,-1.00122,0.10156,-0.01294;
18:22:14.252,-1.00049,0.10229,-0.01563;
18:22:14.262,-1.00146,0.10474,-0.01294;
18:22:14.272,-1.00195,0.10181,-0.01367;
18:22:14.282,-1.00366,0.10132,-0.01343;
18:22:14.292,-1.00439,0.10449,-0.00781;
18:22:14.302,-1.00488,0.10132,-0.00854;
18:22:14.312,-1.00366,0.09741,-0.00781;
18:22:14.322,-1.00195,0.10034,-0.00903;
18:22:14.332,-1.00195,0.09961,-0.00879;
18:22:14.342,-1.00342,0.09766,-0.01196;
18:22:14.352,-1.00171,0.10059,-0.01270;
18:22:14.362,-1.00244,0.10205,-0.00879;
18:22:14.372,-1.00488,0.09668,-0.00586;
18:22:14.382,-1.00562,0.09644,-0.00439;
18:22:14.392,-1.00195,0.09668,-0.00415;
18:22:14.402,-0.99854,0.09473,-0.00586;
18:22:14.412,-1.00073,0.09595,-0.00537;
18:22:14.422,-1.00488,0.09937,-0.01196;
18:22:14.432,-1.00586,0.09399,-0.00513;
18:22:14.442,-1.00513,0.09253,-0.00708;
18:22:14.452,-1.00244,0.09546,-0.00781;
18:22:14.462,-1.00244,0.09155,-0.00537;
18:22:14.472,-1.00439,0.09229,-0.00610;
18:22:14.482,-1.00439,0.09229,-0.00317;
18:22:14.492,-1.00244,0.08887,-0.00269;
18:22:14.502,-1.00269,0.09399,-0.00439;
18:22:14.512,-1.00342,0.09595,-0.00781;
18:22:14.522,-1.00488,0.09692,-0.00732;
18:22:14.532,-1.00830,0.09741,-0.00415;
18:22:14.542,-1.00708,0.09546,-0.00562;
18:22:14.552,-1.00464,0.09448,-0.00195;
18:22:14.562,-1.00464,0.09302,-0.00220;
18:22:14.572,-1.00342,0.09204,-0.00781;
18:22:14.582,-1.00244,0.09277,-0.00928;
18:22:14.592,-1.00244,0.09326,-0.00610;
18:22:14.602,-1.00317,0.09180,-0.00439;
18:22:14.612,-1.00439,0.09033,-0.00171;
18:22:14.622,-1.00269,0.08521,-0.00024;
18:22:14.632,-1.00269,0.08008,-0.00098;
18:22:14.642,-1.00171,0.08203,-0.00269;
18:22:14.652,-1.00146,0.08569,-0.00415;
18:22:14.662,-1.00244,0.08862,-0.00635;
18:22:14.672,-0.99878,0.09253,-0.00610;
18:22:14.682,-0.99976,0.09595,-0.00732;
18:22:14.692,-1.00073,0.09741,-0.00854;
18:22:14.702,-1.00391,0.10010,-0.00610;
18:22:14.712,-1.00757,0.09863,-0.00635;
18:22:14.722,-1.00488,0.10547,-0.00806;
18:22:14.732,-1.00513,0.10522,-0.00708;
18:22:14.742,-1.00586,0.10596,-0.00806;
18:22:14.752,-1.00439,0.11084,-0.01099;
18:22:14.762,-1.00269,0.11328,-0.00977;
18:22:14.772,-0.99927,0.10693,-0.01147;
18:22:14.782,-1.00171,0.10425,-0.00342;
18:22:14.792,-1.00537,0.09839,-0.00366;
18:22:14.802,-1.00610,0.10132,0.00122;
18:22:14.812,-1.00293,0.09326,0.00269;
18:22:14.822,-1.00146,0.09180,-0.00146;
18:22:14.832,-1.00342,0.09912,0.00415;
18:22:14.842,-1.00366,0.09717,0.00244;
18:22:14.852,-1.00317,0.09937,0.00220;
18:22:14.862,-1.00049,0.09961,-0.00146;
18:22:14.872,-0.99536,0.09937,-0.00366;
18:22:14.882,-1.00073,0.10229,-0.00049;
18:22:14.892,-1.00610,0.10400,0.00366;
18:22:14.902,-1.00317,0.10059,0.00537;
18:22:14.912,-1.00244,0.09692,0.00513;
18:22:14.922,-1.00342,0.08521,0.01050;
18:22:14.932,-1.00464,0.08350,0.00513;
18:22:14.942,-1.00269,0.08594,0.00391;
18:22:14.952,-1.00317,0.08936,0.00244;
18:22:14.962,-1.00366,0.08789,0.00732;
18:22:14.972,-1.00513,0.07813,0.01392;
18:22:14.982,-1.00854,0.07251,0.01245;
18:22:14.992,-1.00708,0.07495,0.00732;
18:22:15.002,-1.00415,0.08154,0.00415;
18:22:15.012,-1.00098,0.08203,0.00952;
18:22:15.022,-1.00171,0.08179,0.00952;
18:22:15.032,-1.00391,0.07251,0.01001;
18:22:15.042,-1.00659,0.06519,0.01465;
18:22:15.052,-1.00977,0.06860,0.01563;
18:22:15.062,-1.00806,0.08496,0.00757;
18:22:15.072,-1.00610,0.07544,0.01245;
18:22:15.082,-1.00952,0.05957,0.01270;
18:22:15.092,-1.00879,0.04907,0.01123;
18:22:15.102,-1.00708,0.05469,0.01440;
18:22:15.112,-1.00610,0.06055,0.01514;
18:22:15.122,-1.00562,0.07202,0.01001;
18:22:15.132,-1.00317,0.07373,0.00684;
18:22:15.142,-1.00293,0.05493,0.01123;
18:22:15.152,-1.00684,0.04443,0.01538;
18:22:15.162,-1.00537,0.04663,0.01489;
18:22:15.172,-1.00464,0.05566,0.01685;
18:22:15.182,-1.00488,0.06885,0.01514;
18:22:15.192,-1.00244,0.06812,0.00757;
18:22:15.202,-1.00269,0.06104,0.01123;
18:22:15.212,-1.00708,0.05811,0.01563;
18:22:15.222,-1.00757,0.05420,0.01416;
18:22:15.232,-1.00684,0.05688,0.01392;
18:22:15.242,-1.00684,0.06470,0.01538;
18:22:15.252,-1.00317,0.05835,0.00854;
18:22:15.262,-1.00488,0.04858,0.01514;
18:22:15.272,-1.00439,0.04834,0.01196;
18:22:15.282,-1.00366,0.05518,0.00830;
18:22:15.292,-1.00635,0.05542,0.00732;
18:22:15.302,-1.00586,0.04517,0.01099;
18:22:15.312,-1.00366,0.03516,0.01514;
18:22:15.322,-1.00513,0.02832,0.01831;
18:22:15.332,-1.00708,0.03418,0.01733;
18:22:15.342,-1.00708,0.04272,0.01196;
18:22:15.352,-1.00562,0.04321,0.00854;
18:22:15.362,-1.00488,0.03613,0.00708;
18:22:15.372,-1.00537,0.02344,0.01221;
18:22:15.382,-1.00610,0.02490,0.01392;
18:22:15.392,-1.00830,0.02930,0.01636;
18:22:15.402,-1.00977,0.02759,0.01660;
18:22:15.412,-1.00952,0.03149,0.01172;
18:22:15.422,-1.00903,0.03394,0.01392;
18:22:15.432,-1.00977,0.03345,0.01343;
18:22:15.442,-1.00708,0.02808,0.01099;
18:22:15.452,-1.00684,0.02563,0.01025;
18:22:15.462,-1.00684,0.03223,0.01050;
18:22:15.472,-1.00464,0.03442,0.01245;
18:22:15.482,-1.00659,0.03735,0.01025;
18:22:15.492,-1.00562,0.04077,0.00781;
18:22:15.502,-1.00195,0.04004,0.00659;
18:22:15.512,-1.00391,0.03955,0.00903;
18:22:15.522,-1.00684,0.04053,0.00830;
18:22:15.532,-1.00757,0.04175,0.00781;
18:22:15.542,-1.00757,0.03345,0.01563;
18:22:15.552,-1.00684,0.03394,0.01123;
18:22:15.562,-1.00610,0.03027,0.01196;
18:22:15.572,-1.00537,0.03052,0.01025;
18:22:15.582,-1.00586,0.02930,0.01123;
18:22:15.592,-1.00659,0.03027,0.01123;
18:22:15.602,-1.00562,0.03711,0.01025;
18:22:15.612,-1.00708,0.03271,0.01367;
18:22:15.622,-1.00586,0.02393,0.01221;
18:22:15.632,-1.00684,0.02222,0.01196;
18:22:15.642,-1.00635,0.02417,0.01147;
18:22:15.652,-1.00659,0.02197,0.01392;
18:22:15.662,-1.00781,0.03027,0.01172;
18:22:15.672,-1.00684,0.03369,0.00952;
18:22:15.682,-1.00830,0.02930,0.01221;
18:22:15.692,-1.00537,0.02734,0.01147;
18:22:15.702,-1.00342,0.02197,0.01172;
18:22:15.712,-1.00562,0.02197,0.01196;
18:22:15.722,-1.00732,0.03003,0.01294;
18:22:15.732,-1.00659,0.03076,0.01196;
18:22:15.742,-1.00684,0.03076,0.01099;
18:22:15.752,-1.00854,0.03296,0.01196;
18:22:15.762,-1.00708,0.02979,0.01196;
18:22:15.772,-1.00513,0.02490,0.01245;
18:22:15.782,-1.00269,0.02148,0.00708;
18:22:15.792,-1.00562,0.02173,0.01025;
18:22:15.802,-1.00366,0.03198,0.00708;
18:22:15.812,-1.00562,0.03052,0.00830;
18:22:15.822,-1.00586,0.03174,0.00781;
18:22:15.832,-1.00610,0.03442,0.00659;
18:22:15.842,-1.00464,0.03174,0.00781;
18:22:15.852,-1.00244,0.02344,0.01147;
18:22:15.862,-1.00317,0.02417,0.00977;
18:22:15.872,-1.00513,0.02710,0.00977;
18:22:15.882,-1.00537,0.02563,0.00903;
18:22:15.892,-1.00732,0.03394,0.00586;
18:22:15.902,-1.00513,0.03320,0.00732;
18:22:15.912,-1.00537,0.02588,0.00781;
18:22:15.922,-1.00562,0.02271,0.00806;
18:22:15.932,-1.00732,0.01880,0.00586;
18:22:15.942,-1.00708,0.01880,0.00317;
18:22:15.952,-1.00635,0.01904,0.00830;
18:22:15.962,-1.00781,0.01294,0.01099;
18:22:15.972,-1.00513,0.01416,0.01294;
18:22:15.982,-1.00464,0.01904,0.01172;
18:22:15.992,-1.00537,0.01196,0.01001;
18:22:16.002,-1.00684,0.00708,0.01367;
18:22:16.012,-1.00879,0.00952,0.00708;
18:22:16.022,-1.00854,0.00781,0.01099;
18:22:16.032,-1.00562,0.00977,0.01221;
18:22:16.042,-1.00391,0.01196,0.01318;
18:22:16.052,-1.00659,0.01709,0.01392;
18:22:16.062,-1.00586,0.01880,0.00903;
18:22:16.072,-1.00464,0.00781,0.01172;
18:22:16.082,-1.00830,0.00952,0.01099;
18:22:16.092,-1.00757,0.01465,0.00903;
18:22:16.102,-1.00684,0.01636,0.00928;
18:22:16.112,-1.00732,0.02002,0.00928;
18:22:16.122,-1.00513,0.01831,0.00879;
18:22:16.132,-1.00659,0.01733,0.01050;
18:22:16.142,-1.00317,0.01880,0.01245;
18:22:16.152,-1.00317,0.02490,0.01196;
18:22:16.162,-1.00586,0.02661,0.00781;
18:22:16.172,-1.00293,0.02637,0.00732;
18:22:16.182,-1.00513,0.02686,0.01147;
18:22:16.192,-1.00586,0.02930,0.01074;
18:22:16.202,-1.00732,0.02686,0.01172;
18:22:16.212,-1.00610,0.02393,0.01538;
18:22:16.222,-1.00586,0.01831,0.01587;
18:22:16.232,-1.00244,0.01270,0.01221;
18:22:16.242,-1.00244,0.02124,0.01465;
18:22:16.252,-1.00537,0.00952,0.01807;
18:22:16.262,-1.00659,0.01392,0.02002;
18:22:16.272,-1.00513,0.01440,0.02124;
18:22:16.282,-1.00415,0.01074,0.01831;
18:22:16.292,-1.00391,0.00513,0.01953;
18:22:16.302,-1.00439,0.00024,0.01831;
18:22:16.312,-1.00488,-0.00049,0.01660;
18:22:16.322,-1.00488,0.00415,0.02124;
18:22:16.332,-1.00537,0.00854,0.02075;
18:22:16.342,-1.00586,0.01074,0.01831;
18:22:16.352,-1.00659,0.01294,0.02393;
18:22:16.362,-1.00659,0.00879,0.02637;
18:22:16.372,-1.00659,0.00488,0.02539;
18:22:16.382,-1.00610,0.00586,0.02466;
18:22:16.392,-1.00220,0.00684,0.02661;
18:22:16.402,-1.00342,0.00977,0.02759;
18:22:16.412,-1.00488,0.01245,0.02612;
18:22:16.422,-1.00537,0.01270,0.02271;
18:22:16.432,-1.00708,0.01294,0.02051;
18:22:16.442,-1.00684,0.01611,0.03052;
18:22:16.452,-1.01001,0.01538,0.04443;
18:22:16.462,-1.00977,0.01660,0.04321;
18:22:16.472,-1.01025,0.02612,0.04785;
18:22:16.482,-1.00781,0.02734,0.03955;
18:22:16.492,-1.00757,0.02222,0.05200;
18:22:16.502,-1.01196,0.01318,0.05005;
18:22:16.512,-1.01245,0.01611,0.05078;
18:22:16.522,-1.01196,0.02563,0.05566;
18:22:16.532,-1.01123,0.04004,0.04541;
18:22:16.542,-1.00781,0.05029,0.04712;
18:22:16.552,-1.00513,0.03955,0.05127;
18:22:16.562,-1.00732,0.02637,0.07251;
18:22:16.572,-1.01563,0.03052,0.05566;
18:22:16.582,-1.01831,0.04761,0.04907;
18:22:16.592,-1.01294,0.04834,0.04663;
18:22:16.602,-1.01270,0.05127,0.02808;
18:22:16.612,-1.00562,0.04980,0.02832;
18:22:16.622,-1.00098,0.03296,0.03027;
18:22:16.632,-1.00098,0.02173,0.02661;
18:22:16.642,-0.99512,0.02563,0.03564;
18:22:16.652,-1.00098,0.03931,0.02832;
18:22:16.662,-1.00708,0.05786,0.01318;
18:22:16.672,-1.00317,0.05225,0.01147;
18:22:16.682,-1.00342,0.03662,0.01221;
18:22:16.692,-0.99951,0.03101,0.02930;
18:22:16.702,-0.99658,0.02197,0.03809;
18:22:16.712,-0.99976,0.03638,0.03809;
18:22:16.722,-1.00220,0.05688,0.03955;
18:22:16.732,-1.00122,0.06519,0.03125;
18:22:16.742,-1.00073,0.06836,0.02710;
18:22:16.752,-0.99976,0.05957,0.04810;
18:22:16.762,-0.99927,0.04517,0.05615;
18:22:16.772,-1.00684,0.05688,0.04907;
18:22:16.782,-1.00635,0.07251,0.04199;
18:22:16.792,-1.00439,0.07471,0.02979;
18:22:16.802,-0.99878,0.07764,0.02466;
18:22:16.812,-0.99365,0.06250,0.01270;
18:22:16.822,-0.99390,0.05200,0.01270;
18:22:16.832,-0.99097,0.05176,0.02271;
18:22:16.842,-0.99707,0.05688,0.02368;
18:22:16.852,-1.00366,0.07007,0.02563;
18:22:16.862,-1.00269,0.08057,0.02393;
18:22:16.872,-1.00366,0.07739,0.02686;
18:22:16.882,-1.00269,0.07471,0.04077;
18:22:16.892,-1.00830,0.07300,0.04688;
18:22:16.902,-1.01196,0.06860,0.03613;
18:22:16.912,-1.00732,0.07251,0.02637;
18:22:16.922,-1.00220,0.07324,0.02368;
18:22:16.932,-0.99707,0.07129,0.03174;
18:22:16.942,-0.99878,0.08081,0.04980;
18:22:16.952,-1.00220,0.08496,0.05591;
18:22:16.962,-1.01074,0.09473,0.04956;
18:22:16.972,-1.01172,0.09863,0.03979;
18:22:16.982,-1.00952,0.08618,0.03613;
18:22:16.992,-1.00537,0.07568,0.03198;
18:22:17.002,-1.00195,0.07251,0.03125;
18:22:17.012,-1.00098,0.08350,0.03931;
18:22:17.022,-1.00146,0.09058,0.03296;
18:22:17.032,-1.00146,0.08838,0.02441;
18:22:17.042,-1.00244,0.09399,0.03174;
18:22:17.052,-1.00000,0.11182,0.05542;
18:22:17.062,-1.00806,0.12085,0.04053;
18:22:17.072,-1.00195,0.12207,0.04517;
18:22:17.082,-0.99268,0.12085,0.04736;
18:22:17.092,-0.99585,0.12329,0.04907;
18:22:17.102,-0.99585,0.12329,0.05591;
18:22:17.112,-0.99463,0.11719,0.05029;
18:22:17.122,-0.99463,0.11792,0.04126;
18:22:17.132,-0.98975,0.11816,0.05200;
18:22:17.142,-1.00146,0.12207,0.06226;
18:22:17.152,-0.99976,0.13330,0.06494;
18:22:17.162,-0.99756,0.14673,0.07007;
18:22:17.172,-1.00488,0.13721,0.05420;
18:22:17.182,-1.00537,0.11743,0.04395;
18:22:17.192,-1.00317,0.10986,0.03809;
18:22:17.202,-0.99609,0.10205,0.02783;
18:22:17.212,-0.99048,0.10889,0.02783;
18:22:17.222,-0.99121,0.11328,0.02393;
18:22:17.232,-0.99341,0.11719,0.02661;
18:22:17.242,-0.99634,0.12085,0.03003;
18:22:17.252,-0.99854,0.11670,0.03174;
18:22:17.262,-1.00000,0.11230,0.03662;
18:22:17.272,-1.00024,0.10205,0.04736;
18:22:17.282,-1.00317,0.09595,0.05737;
18:22:17.292,-0.99976,0.10352,0.05347;
18:22:17.302,-0.99634,0.11255,0.05981;
18:22:17.312,-1.00220,0.11133,0.06177;
18:22:17.322,-1.00220,0.11206,0.04565;
18:22:17.332,-0.99756,0.11548,0.04468;
18:22:17.342,-0.99829,0.10669,0.03003;
18:22:17.352,-0.99634,0.09912,0.03442;
18:22:17.362,-0.99829,0.10059,0.02563;
18:22:17.372,-0.99976,0.10913,0.02515;
18:22:17.382,-1.00098,0.11401,0.03882;
18:22:17.392,-1.00537,0.12012,0.04517;
18:22:17.402,-1.00562,0.11963,0.04810;
18:22:17.412,-1.00464,0.11914,0.05908;
18:22:17.422,-1.00513,0.11401,0.06006;
18:22:17.432,-1.00488,0.10059,0.05908;
18:22:17.442,-1.00439,0.08813,0.05811;
18:22:17.452,-1.00415,0.08057,0.05273;
18:22:17.462,-1.00439,0.08521,0.04468;
18:22:17.472,-1.00269,0.08960,0.03125;
18:22:17.482,-0.99829,0.09131,0.03271;
18:22:17.492,-1.00049,0.08887,0.04004;
18:22:17.502,-1.00635,0.08105,0.04346;
18:22:17.512,-1.00610,0.07666,0.05176;
18:22:17.522,-1.00537,0.07153,0.06177;
18:22:17.532,-1.00439,0.06958,0.06396;
18:22:17.542,-1.00220,0.07007,0.06396;
18:22:17.552,-1.00073,0.06812,0.06152;
18:22:17.562,-1.00073,0.06763,0.06616;
18:22:17.572,-1.00146,0.06543,0.06763;
18:22:17.582,-1.00537,0.07275,0.06372;
18:22:17.592,-1.00732,0.07983,0.06714;
18:22:17.602,-1.00903,0.07593,0.06689;
18:22:17.612,-1.01099,0.06689,0.06689;
18:22:17.622,-1.00366,0.06030,0.06348;
18:22:17.632,-1.00098,0.05713,0.05444;
18:22:17.642,-1.00220,0.05615,0.05005;
18:22:17.652,-0.99976,0.05835,0.04492;
18:22:17.662,-1.00000,0.05957,0.03882;
18:22:17.672,-1.00049,0.05273,0.04053;
18:22:17.682,-1.00073,0.05176,0.04688;
18:22:17.692,-1.00244,0.06006,0.04858;
18:22:17.702,-1.00415,0.06567,0.06152;
18:22:17.712,-1.00635,0.06934,0.06958;
18:22:17.722,-1.00903,0.06909,0.07178;
18:22:17.732,-1.01099,0.06812,0.07788;
18:22:17.742,-1.01147,0.06958,0.07153;
18:22:17.752,-1.01099,0.06445,0.07251;
18:22:17.762,-1.00903,0.06104,0.06934;
18:22:17.772,-1.00732,0.06665,0.06396;
18:22:17.782,-1.00757,0.06787,0.05762;
18:22:17.792,-1.00708,0.07324,0.05347;
18:22:17.802,-1.00684,0.07886,0.05103;
18:22:17.812,-1.00757,0.08740,0.05078;
18:22:17.822,-1.00928,0.09521,0.03882;
18:22:17.832,-1.00171,0.08325,0.04956;
18:22:17.842,-0.99805,0.08960,0.04492;
18:22:17.852,-0.99951,0.08447,0.04785;
18:22:17.862,-1.00146,0.08643,0.05396;
18:22:17.872,-0.99854,0.08472,0.04150;
18:22:17.882,-1.00195,0.07910,0.03809;
18:22:17.892,-1.00635,0.07861,0.04297;
18:22:17.902,-1.00464,0.07715,0.04028;
18:22:17.912,-1.00366,0.07935,0.03101;
18:22:17.922,-1.00391,0.08179,0.02832;
18:22:17.932,-1.00269,0.07886,0.03149;
18:22:17.942,-1.00439,0.08252,0.04370;
18:22:17.952,-1.00293,0.08496,0.04468;
18:22:17.962,-0.99829,0.08350,0.03320;
18:22:17.972,-0.99634,0.08325,0.03271;
18:22:17.982,-1.00000,0.08691,0.02856;
18:22:17.992,-1.00195,0.08569,0.01489;
18:22:18.002,-1.00195,0.08813,0.00562;
18:22:18.012,-1.00244,0.09741,0.00928;
18:22:18.022,-1.00244,0.10083,0.01343;
18:22:18.032,-1.00391,0.09937,0.01978;
18:22:18.042,-0.99805,0.09741,0.03271;
18:22:18.052,-0.99829,0.09790,0.02881;
18:22:18.062,-1.00024,0.09668,0.01831;
18:22:18.072,-1.00635,0.09473,0.01147;
18:22:18.082,-1.00977,0.09912,0.00757;
18:22:18.092,-1.00537,0.10718,0.00269;
18:22:18.102,-0.99219,0.10938,-0.00171;
18:22:18.112,-0.97974,0.10889,-0.00439;
18:22:18.122,-0.98218,0.11694,-0.00830;
18:22:18.132,-0.99731,0.12427,-0.00122;
18:22:18.142,-1.01123,0.11841,0.00781;
18:22:18.152,-1.01025,0.10889,0.01489;
18:22:18.162,-1.00391,0.10278,0.01929;
18:22:18.172,-0.99316,0.10425,0.01147;
18:22:18.182,-0.98755,0.11841,-0.00220;
18:22:18.192,-0.98682,0.13257,-0.01978;
18:22:18.202,-0.98999,0.14429,-0.03516;
18:22:18.212,-1.00488,0.15796,-0.02832;
18:22:18.222,-1.01416,0.15771,-0.01074;
18:22:18.232,-1.01050,0.14502,0.00195;
18:22:18.242,-1.00635,0.13477,0.01294;
18:22:18.252,-1.00537,0.13452,0.01318;
18:22:18.262,-0.99658,0.12939,0.00757;
18:22:18.272,-0.97803,0.12158,-0.00537;
18:22:18.282,-0.97046,0.11963,-0.02026;
18:22:18.292,-0.97852,0.12915,-0.03882;
18:22:18.302,-0.99561,0.14771,-0.05347;
18:22:18.312,-1.00269,0.16064,-0.05322;
18:22:18.322,-0.99634,0.16333,-0.04346;
18:22:18.332,-0.98950,0.15479,-0.02588;
18:22:18.342,-0.99438,0.15430,-0.01855;
18:22:18.352,-1.00342,0.16187,-0.01904;
18:22:18.362,-1.00366,0.16724,-0.01514;
18:22:18.372,-1.00439,0.16064,-0.01611;
18:22:18.382,-1.00146,0.14966,-0.02148;
18:22:18.392,-0.99243,0.15527,-0.00610;
18:22:18.402,-0.99683,0.17139,-0.00073;
18:22:18.412,-1.00439,0.17383,-0.01782;
18:22:18.422,-1.00708,0.16724,-0.03149;
18:22:18.432,-1.01172,0.17285,-0.04346;
18:22:18.442,-1.00586,0.17627,-0.05444;
18:22:18.452,-0.99731,0.17212,-0.04883;
18:22:18.462,-0.98706,0.17432,-0.04004;
18:22:18.472,-0.98364,0.18311,-0.03516;
18:22:18.482,-0.99243,0.18286,-0.02441;
18:22:18.492,-1.00610,0.17383,-0.02026;
18:22:18.502,-1.00317,0.17163,-0.02808;
18:22:18.512,-0.98804,0.16895,-0.03198;
18:22:18.522,-0.99023,0.16675,-0.03467;
18:22:18.532,-0.99219,0.17627,-0.04248;
18:22:18.542,-0.99609,0.18945,-0.04272;
18:22:18.552,-1.00024,0.19287,-0.04150;
18:22:18.562,-0.99512,0.18091,-0.03394;
18:22:18.572,-0.99243,0.15869,-0.02393;
18:22:18.582,-0.99390,0.15649,-0.02344;
18:22:18.592,-0.99561,0.18018,-0.05640;
18:22:18.602,-0.99292,0.17163,-0.03174;
18:22:18.612,-0.99341,0.15405,-0.02466;
18:22:18.622,-1.00684,0.15869,-0.04346;
18:22:18.632,-0.99561,0.14771,-0.03979;
18:22:18.642,-0.98608,0.13330,-0.03540;
18:22:18.652,-0.98291,0.12500,-0.03198;
18:22:18.662,-0.98730,0.13086,-0.03955;
18:22:18.672,-0.99072,0.14795,-0.05347;
18:22:18.682,-0.99512,0.15308,-0.05542;
18:22:18.692,-1.00049,0.14673,-0.05225;
18:22:18.702,-1.00024,0.13843,-0.04150;
18:22:18.712,-0.99805,0.13574,-0.03687;
18:22:18.722,-0.99512,0.14185,-0.03711;
18:22:18.732,-0.99658,0.14648,-0.03149;
18:22:18.742,-1.00024,0.15576,-0.03589;
18:22:18.752,-0.99634,0.15820,-0.04053;
18:22:18.762,-0.99707,0.14502,-0.03418;
18:22:18.772,-1.00439,0.13281,-0.03345;
18:22:18.782,-1.00171,0.13037,-0.04028;
18:22:18.792,-0.99683,0.13306,-0.05176;
18:22:18.802,-0.99829,0.14233,-0.05591;
18:22:18.812,-0.99512,0.14600,-0.06250;
18:22:18.822,-0.98779,0.14233,-0.05566;
18:22:18.832,-0.99097,0.13257,-0.04443;
18:22:18.842,-1.00073,0.12329,-0.04834;
18:22:18.852,-1.00488,0.12744,-0.04980;
18:22:18.862,-1.00171,0.12866,-0.05005;
18:22:18.872,-0.99780,0.12134,-0.03687;
18:22:18.882,-0.99951,0.12476,-0.03369;
18:22:18.892,-0.99951,0.13208,-0.04639;
18:22:18.902,-0.99927,0.13647,-0.05200;
18:22:18.912,-1.00488,0.12012,-0.03540;
18:22:18.922,-1.00122,0.13037,-0.02686;
18:22:18.932,-0.99805,0.14453,-0.02466;
18:22:18.942,-1.00049,0.15161,-0.03540;
18:22:18.952,-1.00342,0.15015,-0.04272;
18:22:18.962,-1.00464,0.15308,-0.03271;
18:22:18.972,-0.99854,0.14551,-0.02563;
18:22:18.982,-1.00024,0.10205,-0.02539;
18:22:18.992,-1.00488,0.09106,-0.04028;
18:22:19.002,-1.00122,0.11890,-0.05396;
18:22:19.012,-1.00415,0.12671,-0.05347;
18:22:19.022,-1.00781,0.13696,-0.04395;
18:22:19.032,-1.00854,0.14404,-0.01904;
18:22:19.042,-1.00928,0.13550,-0.01172;
18:22:19.052,-1.00806,0.11792,-0.02612;
18:22:19.062,-1.00806,0.10547,-0.04004;
18:22:19.072,-1.00269,0.10376,-0.04443;
18:22:19.082,-0.99878,0.10645,-0.03174;
18:22:19.092,-1.00293,0.12402,-0.02026;
18:22:19.102,-1.01099,0.14844,-0.03320;
18:22:19.112,-1.00562,0.14258,-0.05859;
18:22:19.122,-0.99634,0.11377,-0.07178;
18:22:19.132,-0.99097,0.07935,-0.07422;
18:22:19.142,-0.97607,0.04272,-0.05835;
18:22:19.152,-0.98706,0.02783,-0.03540;
18:22:19.162,-1.00439,0.05908,-0.03027;
18:22:19.172,-1.00464,0.07813,-0.04858;
18:22:19.182,-1.00269,0.06274,-0.07373;
18:22:19.192,-0.97803,0.03979,-0.09790;
18:22:19.202,-0.96313,-0.01636,-0.10010;
18:22:19.212,-0.98853,-0.02319,-0.06543;
18:22:19.222,-0.99561,0.01099,-0.04272;
18:22:19.232,-1.00586,-0.01733,-0.04395;
18:22:19.242,-1.02441,-0.01270,-0.05444;
18:22:19.252,-1.00806,0.01855,-0.06689;
18:22:19.262,-1.00415,0.00073,-0.06982;
18:22:19.272,-1.00732,0.00000,-0.05420;
18:22:19.282,-1.00391,-0.02026,-0.05615;
18:22:19.292,-1.00903,-0.00073,-0.04272;
18:22:19.302,-1.01880,0.00293,-0.02563;
18:22:19.312,-1.02368,-0.03223,-0.03003;
18:22:19.322,-0.96118,-0.04224,-0.10742;
18:22:19.332,-0.94116,-0.05029,-0.10645;
18:22:19.342,-0.96729,-0.05176,-0.08667;
18:22:19.352,-0.99243,-0.06812,-0.07080;
18:22:19.362,-1.01050,-0.06445,-0.06934;
18:22:19.372,-1.01611,-0.04224,-0.07568;
18:22:19.382,-1.01733,-0.02832,-0.07690;
18:22:19.392,-1.01025,-0.03027,-0.07544;
18:22:19.402,-0.98901,-0.03857,-0.08496;
18:22:19.412,-0.97729,-0.08252,-0.09229;
18:22:19.422,-0.99780,-0.09375,-0.07568;
18:22:19.432,-1.00684,-0.07471,-0.05811;
18:22:19.442,-1.00977,-0.06909,-0.05591;
18:22:19.452,-1.00488,-0.04150,-0.06372;
18:22:19.462,-0.98389,-0.05688,-0.08594;
18:22:19.472,-0.99023,-0.07446,-0.08447;
18:22:19.482,-0.99341,-0.06104,-0.07202;
18:22:19.492,-0.99854,-0.06812,-0.05566;
18:22:19.502,-1.00513,-0.07275,-0.04980;
18:22:19.512,-0.99951,-0.05981,-0.05762;
18:22:19.522,-0.97900,-0.05615,-0.07397;
18:22:19.532,-0.99268,-0.06982,-0.08057;
18:22:19.542,-1.01050,-0.07178,-0.06836;
18:22:19.552,-1.00757,-0.06616,-0.05542;
18:22:19.562,-1.01196,-0.07739,-0.05298;
18:22:19.572,-0.98560,-0.07056,-0.07959;
18:22:19.582,-0.95972,-0.07422,-0.10205;
18:22:19.592,-0.96948,-0.08691,-0.09082;
18:22:19.602,-1.00000,-0.06958,-0.06421;
18:22:19.612,-1.02271,-0.08862,-0.04346;
18:22:19.622,-1.03003,-0.10376,-0.03711;
18:22:19.632,-1.02710,-0.09131,-0.04272;
18:22:19.642,-1.01880,-0.09790,-0.04907;
18:22:19.652,-1.00977,-0.09253,-0.05737;
18:22:19.662,-1.00464,-0.09253,-0.06006;
18:22:19.672,-1.00122,-0.09668,-0.05640;
18:22:19.682,-1.00122,-0.08911,-0.05176;
18:22:19.692,-1.00049,-0.08008,-0.05322;
18:22:19.702,-1.00317,-0.07227,-0.04858;
18:22:19.712,-1.00830,-0.06030,-0.04639;
18:22:19.722,-1.00806,-0.04663,-0.04907;
18:22:19.732,-1.00342,-0.04712,-0.05615;
18:22:19.742,-1.00122,-0.05151,-0.06152;
18:22:19.752,-1.00415,-0.04272,-0.06421;
18:22:19.762,-0.99585,-0.03296,-0.07446;
18:22:19.772,-0.99316,-0.03687,-0.07446;
18:22:19.782,-0.99780,-0.03979,-0.07202;
18:22:19.792,-0.99927,-0.04004,-0.07520;
18:22:19.802,-0.99634,-0.04370,-0.07813;
18:22:19.812,-0.99365,-0.03296,-0.07861;
18:22:19.822,-0.98901,-0.03613,-0.08325;
18:22:19.832,-0.98975,-0.03955,-0.08008;
18:22:19.842,-0.99634,-0.03296,-0.08008;
18:22:19.852,-0.99414,-0.03076,-0.08203;
18:22:19.862,-0.98462,-0.03076,-0.08057;
18:22:19.872,-0.98926,-0.04810,-0.07617;
18:22:19.882,-1.00293,-0.04492,-0.06738;
18:22:19.892,-1.00537,-0.03101,-0.06104;
18:22:19.902,-1.00635,-0.03320,-0.06055;
18:22:19.912,-1.00879,-0.02637,-0.06030;
18:22:19.922,-1.00415,-0.00439,-0.05396;
18:22:19.932,-1.00024,0.00049,-0.05981;
18:22:19.942,-1.00098,-0.02563,-0.05884;
18:22:19.952,-1.00488,-0.03955,-0.05591;
18:22:19.962,-1.00708,-0.03735,-0.06128;
18:22:19.972,-1.00684,-0.02563,-0.06592;
18:22:19.982,-1.00171,-0.00806,-0.07275;
18:22:19.992,-0.99585,-0.00879,-0.07861;
18:22:20.002,-0.99902,-0.01636,-0.07520;
18:22:20.012,-1.00513,-0.01685,-0.06592;
18:22:20.022,-1.01245,-0.01416,-0.06226;
18:22:20.032,-1.01587,-0.00220,-0.05664;
18:22:20.042,-0.98999,0.00781,-0.09961;
18:22:20.052,-0.98608,-0.01758,-0.06714;
18:22:20.062,-1.00439,-0.00293,-0.07275;
18:22:20.072,-0.99609,-0.04639,-0.08130;
18:22:20.082,-1.01001,-0.02881,-0.05103;
18:22:20.092,-1.01025,-0.02197,-0.06177;
18:22:20.102,-1.00098,-0.01904,-0.07520;
18:22:20.112,-0.99097,-0.03101,-0.07959;
18:22:20.122,-0.99414,-0.04468,-0.06860;
18:22:20.132,-1.00854,-0.04517,-0.04932;
18:22:20.142,-1.01514,-0.03711,-0.04492;
18:22:20.152,-1.01416,-0.01953,-0.05322;
18:22:20.162,-1.00952,-0.00757,-0.06860;
18:22:20.172,-1.00195,-0.00879,-0.07324;
18:22:20.182,-1.00269,-0.01685,-0.07007;
18:22:20.192,-0.99756,-0.03467,-0.06665;
18:22:20.202,-0.99707,-0.04199,-0.06543;
18:22:20.212,-1.00488,-0.02954,-0.06494;
18:22:20.222,-1.00781,-0.01709,-0.06714;
18:22:20.232,-1.00952,-0.01880,-0.06665;
18:22:20.242,-1.00854,-0.02222,-0.07275;
18:22:20.252,-1.00439,-0.02832,-0.07520;
18:22:20.262,-0.99487,-0.04175,-0.07275;
18:22:20.272,-0.99268,-0.04541,-0.07617;
18:22:20.282,-0.99780,-0.04419,-0.07520;
18:22:20.292,-1.00537,-0.04370,-0.07056;
18:22:20.302,-1.00977,-0.03296,-0.06958;
18:22:20.312,-1.01050,-0.02466,-0.07666;
18:22:20.322,-1.00415,-0.01978,-0.08154;
18:22:20.332,-0.99268,-0.03101,-0.08301;
18:22:20.342,-0.99292,-0.04663,-0.07178;
18:22:20.352,-0.99878,-0.04834,-0.06030;
18:22:20.362,-1.00000,-0.04688,-0.05591;
18:22:20.372,-1.00830,-0.03589,-0.06543;
18:22:20.382,-1.01709,-0.02441,-0.08203;
18:22:20.392,-1.01660,-0.02344,-0.08643;
18:22:20.402,-1.01367,-0.02759,-0.07544;
18:22:20.412,-1.01538,-0.03564,-0.04736;
18:22:20.422,-1.01050,-0.03711,-0.05151;
18:22:20.432,-1.00000,-0.03687,-0.07227;
18:22:20.442,-1.00024,-0.03784,-0.07324;
18:22:20.452,-1.00073,-0.03271,-0.07617;
18:22:20.462,-0.99536,-0.03735,-0.07251;
18:22:20.472,-0.99878,-0.04565,-0.06567;
18:22:20.482,-1.00073,-0.03125,-0.07080;
18:22:20.492,-0.99683,-0.02368,-0.07495;
18:22:20.502,-1.00195,-0.03467,-0.07471;
18:22:20.512,-1.00439,-0.03271,-0.07324;
18:22:20.522,-1.00610,-0.03589,-0.06250;
18:22:20.532,-1.01099,-0.04175,-0.05444;
18:22:20.542,-1.00684,-0.03979,-0.05347;
18:22:20.552,-1.00293,-0.03955,-0.05688;
18:22:20.562,-1.00146,-0.04395,-0.05762;
18:22:20.572,-1.00269,-0.03882,-0.05933;
18:22:20.582,-1.00854,-0.03394,-0.05933;
18:22:20.592,-1.00928,-0.02979,-0.06372;
18:22:20.602,-1.01221,-0.02710,-0.07080;
18:22:20.612,-1.01343,-0.02954,-0.07275;
18:22:20.622,-1.00977,-0.02734,-0.07349;
18:22:20.632,-1.00024,-0.02881,-0.07568;
18:22:20.642,-0.98511,-0.03394,-0.08374;
18:22:20.652,-0.97559,-0.04150,-0.08350;
18:22:20.662,-0.97925,-0.05078,-0.07739;
18:22:20.672,-0.99268,-0.03662,-0.07739;
18:22:20.682,-0.99976,-0.02002,-0.07935;
18:22:20.692,-0.99951,-0.02271,-0.08154;
18:22:20.702,-0.99463,-0.02344,-0.08228;
18:22:20.712,-0.98560,-0.02197,-0.08447;
18:22:20.722,-0.98242,-0.02637,-0.08301;
18:22:20.732,-0.98340,-0.02930,-0.08008;
18:22:20.742,-0.99023,-0.02515,-0.07910;
18:22:20.752,-1.00195,-0.01880,-0.07739;
18:22:20.762,-1.00781,-0.01147,-0.07739;
18:22:20.772,-1.01001,-0.00879,-0.07471;
18:22:20.782,-1.00830,-0.00415,-0.07373;
18:22:20.792,-1.00513,-0.00586,-0.07886;
18:22:20.802,-1.00220,-0.01318,-0.08130;
18:22:20.812,-1.00195,-0.00659,-0.08447;
18:22:20.822,-1.00293,0.00024,-0.08594;
18:22:20.832,-1.00269,0.00391,-0.08398;
18:22:20.842,-0.98389,-0.01538,-0.09033;
18:22:20.852,-0.99561,-0.00049,-0.07886;
18:22:20.862,-1.01270,0.00806,-0.07910;
18:22:20.872,-1.00952,0.00537,-0.08398;
18:22:20.882,-0.99951,-0.00757,-0.07886;
18:22:20.892,-1.00122,-0.01025,-0.07593;
18:22:20.902,-0.99854,-0.00293,-0.08228;
18:22:20.912,-0.99878,-0.00610,-0.08838;
18:22:20.922,-1.00000,-0.00903,-0.08447;
18:22:20.932,-1.00220,-0.02075,-0.08301;
18:22:20.942,-1.00317,-0.02515,-0.08154;
18:22:20.952,-1.00049,-0.01978,-0.08154;
18:22:20.962,-0.99658,-0.02051,-0.08301;
18:22:20.972,-0.99854,-0.02441,-0.08325;
18:22:20.982,-1.00586,-0.01758,-0.07910;
18:22:20.992,-1.00806,-0.00879,-0.07715;
18:22:21.002,-1.00488,-0.01758,-0.07617;
18:22:21.012,-1.00293,-0.02368,-0.07422;
18:22:21.022,-1.00391,-0.01416,-0.07690;
18:22:21.032,-1.00732,-0.00903,-0.07935;
18:22:21.042,-1.01050,-0.01001,-0.07544;
18:22:21.052,-1.00928,-0.00854,-0.07813;
18:22:21.062,-1.00049,-0.00366,-0.08252;
18:22:21.072,-0.99365,-0.00732,-0.08325;
18:22:21.082,-0.99658,-0.00732,-0.08472;
18:22:21.092,-1.00024,0.00464,-0.08276;
18:22:21.102,-1.00708,0.00220,-0.08179;
18:22:21.112,-1.00952,0.00439,-0.07446;
18:22:21.122,-1.00952,0.01636,-0.07935;
18:22:21.132,-1.01001,0.02148,-0.08643;
18:22:21.142,-1.00391,0.02246,-0.08813;
18:22:21.152,-1.00366,0.00854,-0.09058;
18:22:21.162,-1.00610,0.00171,-0.08765;
18:22:21.172,-1.00806,0.00293,-0.08447;
18:22:21.182,-1.00708,0.00000,-0.08472;
18:22:21.192,-1.00513,-0.00171,-0.09033;
18:22:21.202,-1.00122,-0.00146,-0.09106;
18:22:21.212,-0.99341,-0.00195,-0.09033;
18:22:21.222,-0.99536,-0.01440,-0.08984;
18:22:21.232,-0.99805,-0.01538,-0.08740;
18:22:21.242,-0.99634,-0.01025,-0.08594;
18:22:21.252,-0.99438,-0.01465,-0.08936;
18:22:21.262,-0.99390,-0.01050,-0.08789;
18:22:21.272,-0.99048,-0.01025,-0.09131;
18:22:21.282,-0.99292,-0.01367,-0.08740;
18:22:21.292,-0.99707,-0.00684,-0.07813;
18:22:21.302,-1.00244,-0.00269,-0.07520;
18:22:21.312,-1.00977,0.00439,-0.06958;
18:22:21.322,-1.01343,0.01050,-0.06616;
18:22:21.332,-1.01099,0.01001,-0.06641;
18:22:21.342,-1.00391,0.00879,-0.07056;
18:22:21.352,-0.99609,0.01099,-0.07373;
18:22:21.362,-0.98828,0.01318,-0.07642;
18:22:21.372,-0.99316,0.01343,-0.07983;
18:22:21.382,-0.99707,0.01855,-0.07813;
18:22:21.392,-1.00293,0.01685,-0.07275;
18:22:21.402,-1.00659,0.01465,-0.06763;
18:22:21.412,-1.00586,0.01953,-0.06738;
18:22:21.422,-1.00195,0.01831,-0.07544;
18:22:21.432,-1.00146,0.01343,-0.08105;
18:22:21.442,-1.00244,0.01196,-0.08252;
18:22:21.452,-1.00122,0.00708,-0.07715;
18:22:21.462,-1.00781,0.01123,-0.06812;
18:22:21.472,-1.01050,0.02246,-0.06274;
18:22:21.482,-1.01099,0.02246,-0.07007;
18:22:21.492,-1.00684,0.01685,-0.07251;
18:22:21.502,-1.00854,0.01489,-0.06934;
18:22:21.512,-1.01392,0.01733,-0.06470;
18:22:21.522,-1.01147,0.02417,-0.06860;
18:22:21.532,-1.00708,0.02148,-0.07300;
18:22:21.542,-1.00073,0.02417,-0.07446;
18:22:21.552,-0.99561,0.02197,-0.07983;
18:22:21.562,-0.99707,0.01294,-0.07959;
18:22:21.572,-0.99878,0.01245,-0.08252;
18:22:21.582,-0.99976,0.01001,-0.07886;
18:22:21.592,-1.00073,0.01001,-0.07715;
18:22:21.602,-1.00098,0.02148,-0.07446;
18:22:21.612,-1.00537,0.02759,-0.07495;
18:22:21.622,-1.00586,0.02002,-0.07471;
18:22:21.632,-1.00610,0.01001,-0.06934;
18:22:21.642,-1.00708,0.02710,-0.06982;
18:22:21.652,-0.99609,0.01050,-0.07349;
18:22:21.662,-1.00342,0.00757,-0.06763;
18:22:21.672,-1.00488,0.01074,-0.07080;
18:22:21.682,-1.00415,0.00757,-0.07764;
18:22:21.692,-1.00317,0.00854,-0.07642;
18:22:21.702,-1.00049,0.00708,-0.07446;
18:22:21.712,-0.99561,0.00000,-0.07837;
18:22:21.722,-0.99194,-0.00415,-0.07813;
18:22:21.732,-0.99707,-0.00464,-0.07617;
18:22:21.742,-1.00073,-0.00293,-0.07788;
18:22:21.752,-0.99194,-0.00317,-0.08032;
18:22:21.762,-0.98853,-0.01123,-0.07837;
18:22:21.772,-0.99536,-0.00415,-0.07544;
18:22:21.782,-1.00049,0.00293,-0.06909;
18:22:21.792,-1.00586,0.00073,-0.06079;
18:22:21.802,-1.01050,0.00293,-0.05835;
18:22:21.812,-1.01025,0.00244,-0.06274;
18:22:21.822,-1.00635,0.00415,-0.06689;
18:22:21.832,-1.00464,0.00146,-0.06494;
18:22:21.842,-1.00269,0.00537,-0.06836;
18:22:21.852,-1.00000,0.00659,-0.06958;
18:22:21.862,-1.00317,0.00049,-0.07056;
18:22:21.872,-1.00586,0.01074,-0.06909;
18:22:21.882,-1.00342,0.01294,-0.06616;
18:22:21.892,-0.99976,0.00903,-0.06543;
18:22:21.902,-1.00586,0.00806,-0.07275;
18:22:21.912,-1.00879,0.01782,-0.07764;
18:22:21.922,-1.00977,0.02222,-0.07275;
18:22:21.932,-1.01465,0.01685,-0.06689;
18:22:21.942,-1.01147,0.01904,-0.06616;
18:22:21.952,-1.00781,0.01318,-0.06909;
18:22:21.962,-1.00366,0.00537,-0.07275;
18:22:21.972,-1.00073,0.00171,-0.07422;
18:22:21.982,-1.00073,-0.00293,-0.07202;
18:22:21.992,-1.00488,-0.00342,-0.07104;
18:22:22.002,-1.00757,0.00000,-0.06543;
18:22:22.012,-1.00732,0.00391,-0.06104;
18:22:22.022,-1.00562,0.00806,-0.05859;
18:22:22.032,-1.00415,0.00366,-0.06055;
18:22:22.042,-1.00586,0.00293,-0.05640;
18:22:22.052,-1.00708,0.00366,-0.05322;
18:22:22.062,-0.99902,0.00122,-0.05493;
18:22:22.072,-0.99780,0.00195,-0.05298;
18:22:22.082,-0.99634,0.00195,-0.05762;
18:22:22.092,-0.98828,-0.00464,-0.06226;
18:22:22.102,-0.99390,-0.00562,-0.06665;
18:22:22.112,-1.00244,0.00000,-0.06128;
18:22:22.122,-1.00537,0.00171,-0.04834;
18:22:22.132,-1.00806,-0.00049,-0.04077;
18:22:22.142,-1.00659,-0.00195,-0.04272;
18:22:22.152,-0.99902,0.00171,-0.05103;
18:22:22.162,-0.99927,0.00610,-0.05249;
18:22:22.172,-1.00464,0.01660,-0.05493;
18:22:22.182,-1.01099,0.02954,-0.05103;
18:22:22.192,-1.01782,0.02661,-0.04443;
18:22:22.202,-1.01001,0.02295,-0.04883;
18:22:22.212,-1.00049,0.01563,-0.04883;
18:22:22.222,-1.00049,0.01318,-0.05371;
18:22:22.232,-1.00366,0.02075,-0.06079;
18:22:22.242,-1.01050,0.01685,-0.05298;
18:22:22.252,-1.01147,0.02319,-0.04932;
18:22:22.262,-1.00317,0.02881,-0.05298;
18:22:22.272,-0.99561,0.02002,-0.05200;
18:22:22.282,-0.99683,0.01489,-0.04980;
18:22:22.292,-1.00366,0.01587,-0.04590;
18:22:22.302,-1.01147,0.01758,-0.03882;
18:22:22.312,-1.01782,0.01978,-0.03955;
18:22:22.322,-1.01733,0.02637,-0.04541;
18:22:22.332,-1.01489,0.03467,-0.05103;
18:22:22.342,-1.00684,0.02954,-0.05591;
18:22:22.352,-0.99292,0.00879,-0.06787;
18:22:22.362,-0.97778,-0.01636,-0.07275;
18:22:22.372,-0.97876,-0.02759,-0.06689;
18:22:22.382,-0.99536,-0.02002,-0.06128;
18:22:22.392,-1.00391,-0.01782,-0.05078;
18:22:22.402,-1.00879,-0.02539,-0.04492;
18:22:22.412,-1.00269,-0.02686,-0.04785;
18:22:22.422,-0.98804,-0.00757,-0.04102;
18:22:22.432,-1.00513,0.00293,-0.03101;
18:22:22.442,-0.99146,-0.00146,-0.04712;
18:22:22.452,-1.00562,0.02002,-0.03516;
18:22:22.462,-1.03491,0.02026,-0.01123;
18:22:22.472,-1.03540,0.02246,-0.01172;
18:22:22.482,-1.02124,0.02246,-0.02051;
18:22:22.492,-1.01147,0.01123,-0.02441;
18:22:22.502,-1.00903,0.01050,-0.01855;
18:22:22.512,-1.00830,0.00513,-0.02173;
18:22:22.522,-1.01025,-0.00024,-0.02124;
18:22:22.532,-1.00415,0.00439,-0.02173;
18:22:22.542,-0.99780,0.00610,-0.02295;
18:22:22.552,-0.99365,0.00464,-0.02344;
18:22:22.562,-0.99585,-0.00977,-0.02515;
18:22:22.572,-1.00513,-0.01685,-0.01953;
18:22:22.582,-1.00977,-0.01318,-0.01147;
18:22:22.592,-1.01050,-0.01025,-0.01294;
18:22:22.602,-1.00513,-0.00586,-0.01563;
18:22:22.612,-1.00244,-0.00464,-0.01611;
18:22:22.622,-0.99976,-0.01025,-0.01440;
18:22:22.632,-0.99341,-0.01611,-0.01416;
18:22:22.642,-0.99414,-0.01807,-0.01123;
18:22:22.652,-1.00073,-0.01196,0.00049;
18:22:22.662,-1.00415,0.00098,0.00757;
18:22:22.672,-1.00391,0.00610,0.00879;
18:22:22.682,-1.00806,0.00708,0.00781;
18:22:22.692,-1.01245,0.01123,0.00708;
18:22:22.702,-1.01440,0.00952,0.00537;
18:22:22.712,-1.00806,0.00488,0.00098;
18:22:22.722,-1.00073,-0.00610,-0.00415;
18:22:22.732,-0.99707,-0.00830,-0.00879;
18:22:22.742,-1.00000,-0.00342,-0.00879;
18:22:22.752,-1.00562,0.00122,0.00415;
18:22:22.762,-0.99902,0.01123,0.01733;
18:22:22.772,-0.98657,0.00659,0.02344;
18:22:22.782,-0.98926,-0.01099,0.01636;
18:22:22.792,-0.99731,-0.00806,0.00122;
18:22:22.802,-1.00610,0.00122,-0.00708;
18:22:22.812,-1.01416,-0.00171,-0.01172;
18:22:22.822,-1.00854,-0.00122,-0.01807;
18:22:22.832,-1.00391,0.00195,-0.01001;
18:22:22.842,-1.00391,-0.00195,0.00732;
18:22:22.852,-1.00537,-0.00537,0.02100;
18:22:22.862,-1.00684,-0.01221,0.00415;
18:22:22.872,-0.99365,-0.01807,-0.02319;
18:22:22.882,-0.97925,-0.02515,-0.02856;
18:22:22.892,-0.98657,-0.01270,-0.03076;
18:22:22.902,-1.02173,0.04175,-0.02686;
18:22:22.912,-1.04858,0.03345,-0.01880;
18:22:22.922,-1.04028,-0.01611,0.00854;
18:22:22.932,-1.01099,-0.02954,0.03735;
18:22:22.942,-0.97900,0.00049,0.05835;
18:22:22.952,-0.96851,0.01343,0.05249;
18:22:22.962,-0.99292,-0.00488,0.02612;
18:22:22.972,-1.03760,-0.00952,0.00366;
18:22:22.982,-1.05200,-0.02246,0.00220;
18:22:22.992,-1.03857,-0.03760,0.01514;
18:22:23.002,-1.02173,-0.03369,0.01758;
18:22:23.012,-1.00513,-0.01221,0.00293;
18:22:23.022,-0.99243,-0.00366,-0.02808;
18:22:23.032,-0.98413,0.00000,-0.05811;
18:22:23.042,-0.98022,0.01563,-0.08594;
18:22:23.052,-0.99072,0.03760,-0.07446;
18:22:23.062,-1.01489,0.05396,-0.02734;
18:22:23.072,-1.01221,-0.02173,-0.02759;
18:22:23.082,-1.00293,-0.03076,-0.03174;
18:22:23.092,-0.98340,-0.03174,-0.03296;
18:22:23.102,-0.96069,-0.08032,-0.03442;
18:22:23.112,-0.99170,-0.07104,0.01245;
18:22:23.122,-1.01758,-0.06128,0.06860;
18:22:23.132,-1.01050,-0.03687,0.08130;
18:22:23.142,-1.04175,-0.01001,0.06592;
18:22:23.152,-1.06030,0.00098,0.07690;
18:22:23.162,-1.06323,0.00708,0.07056;
18:22:23.172,-1.05542,-0.01123,0.06934;
18:22:23.182,-1.03809,-0.02368,0.07300;
18:22:23.192,-1.01660,-0.01855,0.07861;
18:22:23.202,-0.98901,-0.02026,0.07446;
18:22:23.212,-0.95288,-0.02612,0.07300;
18:22:23.222,-0.94165,-0.02710,0.07007;
18:22:23.232,-0.94653,-0.02222,0.07300;
18:22:23.242,-0.94995,-0.01685,0.07666;
18:22:23.252,-0.94580,-0.01587,0.07324;
18:22:23.262,-0.94092,-0.02979,0.07324;
18:22:23.272,-0.94922,-0.02930,0.06787;
18:22:23.282,-0.96802,-0.01880,0.05957;
18:22:23.292,-0.98047,-0.01978,0.05591;
18:22:23.302,-0.96606,-0.03003,0.05640;
18:22:23.312,-0.93628,-0.05176,0.06323;
18:22:23.322,-0.93091,-0.06030,0.06836;
18:22:23.332,-0.93555,-0.04492,0.06299;
18:22:23.342,-0.94409,-0.03809,0.04980;
18:22:23.352,-0.97583,-0.03418,0.05273;
18:22:23.362,-1.01221,-0.01660,0.06226;
18:22:23.372,-1.03296,-0.00366,0.07056;
18:22:23.382,-1.05493,0.00537,0.09302;
18:22:23.392,-1.07617,-0.00049,0.11182;
18:22:23.402,-1.08179,-0.00854,0.12158;
18:22:23.412,-1.07568,-0.01270,0.13062;
18:22:23.422,-1.06860,-0.02295,0.13110;
18:22:23.432,-1.06152,-0.03101,0.12695;
18:22:23.442,-1.04541,-0.03735,0.11743;
18:22:23.452,-1.02344,-0.03955,0.10742;
18:22:23.462,-1.00903,-0.05444,0.10889;
18:22:23.472,-1.00391,-0.06006,0.11133;
18:22:23.482,-0.99268,-0.05664,0.11328;
18:22:23.492,-0.98657,-0.06128,0.10962;
18:22:23.502,-0.97583,-0.06812,0.10498;
18:22:23.512,-0.95703,-0.07251,0.09912;
18:22:23.522,-0.94409,-0.07495,0.09326;
18:22:23.532,-0.94556,-0.07251,0.09863;
18:22:23.542,-0.96313,-0.05957,0.10864;
18:22:23.552,-0.98267,-0.04492,0.11279;
18:22:23.562,-1.00439,-0.03345,0.10938;
18:22:23.572,-1.02173,-0.02588,0.10522;
18:22:23.582,-1.02759,-0.01880,0.10107;
18:22:23.592,-1.02881,-0.01904,0.09692;
18:22:23.602,-1.03003,-0.02368,0.09741;
18:22:23.612,-1.02417,-0.03101,0.10474;
18:22:23.622,-1.01465,-0.03149,0.10645;
18:22:23.632,-1.00732,-0.02368,0.10522;
18:22:23.642,-0.99829,-0.02026,0.10254;
18:22:23.652,-0.97949,-0.03979,0.09375;
18:22:23.662,-0.95703,-0.06641,0.09082;
18:22:23.672,-0.94604,-0.06396,0.08008;
18:22:23.682,-0.94678,-0.05591,0.07446;
18:22:23.692,-0.95288,-0.06738,0.08008;
18:22:23.702,-0.96069,-0.07129,0.08228;
18:22:23.712,-0.96167,-0.06763,0.07861;
18:22:23.722,-0.95166,-0.06982,0.07837;
18:22:23.732,-0.94141,-0.07959,0.08032;
18:22:23.742,-0.91724,-0.09009,0.08618;
18:22:23.752,-0.91089,-0.09326,0.09399;
18:22:23.762,-1.04077,-0.03052,0.13574;
18:22:23.772,-1.08618,0.05225,0.18799;
18:22:23.782,-1.14014,0.03564,0.12695;
18:22:23.792,-1.05640,0.02148,0.09692;
18:22:23.802,-1.01587,-0.00342,0.08643;
18:22:23.812,-0.99756,-0.00562,0.09131;
18:22:23.822,-0.98193,-0.00854,0.10303;
18:22:23.832,-0.99097,-0.00391,0.07349;
18:22:23.842,-1.00513,-0.00952,0.08960;
18:22:23.852,-1.00903,-0.00146,0.07910;
18:22:23.862,-1.00513,0.00391,0.07349;
18:22:23.872,-1.00952,0.01270,0.08276;
18:22:23.882,-1.01074,0.01221,0.09839;
18:22:23.892,-1.01270,0.00757,0.09302;
18:22:23.902,-1.00732,0.00391,0.08179;
18:22:23.912,-1.00000,0.00415,0.09009;
18:22:23.922,-1.00098,0.00903,0.09399;
18:22:23.932,-1.00024,0.00781,0.09644;
18:22:23.942,-1.00293,0.01294,0.08984;
18:22:23.952,-1.01025,0.01318,0.07837;
18:22:23.962,-1.01025,-0.00024,0.07031;
18:22:23.972,-1.00293,-0.01074,0.07104;
18:22:23.982,-0.99731,-0.02100,0.07861;
18:22:23.992,-0.99780,-0.01660,0.07886;
18:22:24.002,-1.00415,-0.01123,0.08203;
18:22:24.012,-1.00854,-0.01025,0.08862;
18:22:24.022,-1.01025,-0.01123,0.09058;
18:22:24.032,-1.00537,-0.01221,0.09082;
18:22:24.042,-0.99878,-0.01123,0.09204;
18:22:24.052,-0.98926,-0.01367,0.09521;
18:22:24.062,-0.98828,-0.01489,0.09644;
18:22:24.072,-0.99829,-0.00781,0.09351;
18:22:24.082,-1.00293,0.00903,0.09351;
18:22:24.092,-1.00684,0.02295,0.09546;
18:22:24.102,-1.01123,0.03198,0.09326;
18:22:24.112,-1.01294,0.02856,0.09229;
18:22:24.122,-1.01123,0.01123,0.09131;
18:22:24.132,-1.00781,0.00854,0.09521;
18:22:24.142,-1.00684,0.00659,0.08228;
18:22:24.152,-1.00464,-0.00439,0.07617;
18:22:24.162,-0.99780,-0.01001,0.07886;
18:22:24.172,-0.99902,-0.00537,0.08521;
18:22:24.182,-1.00464,-0.00098,0.09033;
18:22:24.192,-1.00439,-0.00439,0.08447;
18:22:24.202,-1.00366,-0.00635,0.08862;
18:22:24.212,-1.00513,-0.00488,0.09204;
18:22:24.222,-1.00391,-0.01050,0.08325;
18:22:24.232,-1.00366,-0.02124,0.08081;
18:22:24.242,-1.00464,-0.02100,0.08301;
18:22:24.252,-1.00415,-0.02002,0.08716;
18:22:24.262,-1.00806,-0.01904,0.08203;
18:22:24.272,-1.00635,-0.02026,0.07300;
18:22:24.282,-1.00195,-0.01245,0.06787;
18:22:24.292,-1.00000,0.00391,0.06567;
18:22:24.302,-1.00049,0.00146,0.07080;
18:22:24.312,-1.00488,-0.00073,0.07178;
18:22:24.322,-1.00854,-0.00488,0.06812;
18:22:24.332,-1.01050,-0.01514,0.06860;
18:22:24.342,-1.00928,-0.01392,0.07349;
18:22:24.352,-1.00586,-0.01074,0.06982;
18:22:24.362,-1.00024,-0.01367,0.06079;
18:22:24.372,-0.99487,-0.01685,0.05103;
18:22:24.382,-0.99536,-0.01538,0.04614;
18:22:24.392,-1.00342,-0.00586,0.05615;
18:22:24.402,-1.00684,-0.00171,0.05981;
18:22:24.412,-1.00684,0.00073,0.05957;
18:22:24.422,-1.00732,-0.00415,0.05127;
18:22:24.432,-1.00732,-0.00732,0.04590;
18:22:24.442,-1.00708,-0.00659,0.05249;
18:22:24.452,-1.00488,-0.00854,0.05054;
18:22:24.462,-0.99634,-0.01074,0.04565;
18:22:24.472,-0.99097,-0.01294,0.04175;
18:22:24.482,-0.99097,-0.00952,0.03882;
18:22:24.492,-0.99463,-0.00854,0.03857;
18:22:24.502,-1.00391,-0.00610,0.04248;
18:22:24.512,-1.00854,-0.00293,0.04785;
18:22:24.522,-1.00781,-0.00684,0.04761;
18:22:24.532,-1.00562,-0.00806,0.04761;
18:22:24.542,-1.00269,-0.00513,0.04492;
18:22:24.552,-1.00293,-0.00488,0.04175;
18:22:24.562,-1.00366,-0.00610,0.03467;
18:22:24.572,-1.00732,0.00000,0.03638;
18:22:24.582,-1.01147,-0.01196,0.03662;
18:22:24.592,-1.00098,-0.02759,0.03467;
18:22:24.602,-1.00879,-0.02905,0.03394;
18:22:24.612,-1.01001,-0.03760,0.03784;
18:22:24.622,-1.00854,-0.03857,0.03711;
18:22:24.632,-1.00171,-0.03589,0.03296;
18:22:24.642,-0.99658,-0.03711,0.03174;
18:22:24.652,-1.00171,-0.03906,0.03345;
18:22:24.662,-1.00659,-0.03345,0.02808;
18:22:24.672,-1.00415,-0.03149,0.02173;
18:22:24.682,-0.99927,-0.03320,0.02686;
18:22:24.692,-0.99097,-0.03052,0.02393;
18:22:24.702,-0.99292,-0.01855,0.01685;
18:22:24.712,-1.00977,-0.01221,0.01929;
18:22:24.722,-1.01709,-0.01953,0.02393;
18:22:24.732,-1.00977,-0.02295,0.01733;
18:22:24.742,-0.99927,-0.02930,0.01929;
18:22:24.752,-0.99561,-0.02979,0.03027;
18:22:24.762,-1.00439,-0.02319,0.02808;
18:22:24.772,-1.01733,-0.01538,0.01880;
18:22:24.782,-1.01904,-0.01245,-0.00635;
18:22:24.792,-1.01489,-0.01587,-0.02148;
18:22:24.802,-1.00977,-0.01709,-0.02051;
18:22:24.812,-1.00122,-0.02197,-0.02490;
18:22:24.822,-0.99976,-0.02588,-0.02734;
18:22:24.832,-1.00439,-0.02466,-0.03394;
18:22:24.842,-1.00391,-0.02637,-0.04053;
18:22:24.852,-1.00244,-0.02808,-0.03979;
18:22:24.862,-0.99829,-0.02441,-0.03369;
18:22:24.872,-0.99268,-0.02197,-0.03320;
18:22:24.882,-0.99463,-0.02637,-0.03271;
18:22:24.892,-0.99805,-0.02417,-0.02661;
18:22:24.902,-1.00513,-0.01904,-0.02905;
18:22:24.912,-1.01050,-0.01367,-0.02612;
18:22:24.922,-1.01538,-0.00806,-0.01782;
18:22:24.932,-1.01563,-0.01074,-0.01904;
18:22:24.942,-1.01050,-0.01001,-0.01807;
18:22:24.952,-1.00342,-0.01465,-0.02222;
18:22:24.962,-0.99951,-0.02832,-0.02515;
18:22:24.972,-0.99902,-0.02930,-0.02783;
18:22:24.982,-0.99292,-0.02515,-0.03711;
18:22:24.992,-0.98584,-0.02075,-0.04492;
18:22:25.002,-0.98389,-0.02051,-0.04395;
18:22:25.012,-0.99365,-0.02808,-0.02661;
18:22:25.022,-1.00708,-0.02466,-0.01611;
18:22:25.032,-1.00952,-0.02417,-0.01465;
18:22:25.042,-1.00854,-0.02612,-0.01367;
18:22:25.052,-1.00586,-0.02222,-0.01392;
18:22:25.062,-0.99512,-0.01953,-0.01831;
18:22:25.072,-0.99585,-0.02515,-0.01904;
18:22:25.082,-1.00195,-0.02368,-0.01733;
18:22:25.092,-1.00220,-0.01904,-0.02441;
18:22:25.102,-1.00269,-0.02051,-0.02100;
18:22:25.112,-1.00146,-0.01318,-0.02051;
18:22:25.122,-1.00122,0.00146,-0.01465;
18:22:25.132,-1.00854,0.00488,-0.00244;
18:22:25.142,-1.01270,-0.00073,-0.00293;
18:22:25.152,-1.00952,0.00464,-0.00562;
18:22:25.162,-1.00684,0.01807,0.00000;
18:22:25.172,-1.01025,0.02393,-0.00220;
18:22:25.182,-1.01245,0.00024,-0.00879;
18:22:25.192,-1.01196,0.00049,0.00464;
18:22:25.202,-1.01392,-0.01660,-0.01855;
18:22:25.212,-0.98584,-0.07104,-0.04272;
18:22:25.222,-0.96680,-0.09229,-0.03418;
18:22:25.232,-0.99023,-0.05957,-0.02515;
18:22:25.242,-1.01831,0.01025,-0.02026;
18:22:25.252,-1.03760,0.04468,-0.02246;
18:22:25.262,-1.03516,0.02148,-0.01416;
18:22:25.272,-1.02173,0.00244,-0.02002;
18:22:25.282,-1.00928,0.00146,-0.03564;
18:22:25.292,-0.99438,-0.00024,-0.04883;
18:22:25.302,-0.98877,0.00586,-0.05518;
18:22:25.312,-0.99243,-0.00293,-0.04541;
18:22:25.322,-0.99341,-0.01563,-0.03247;
18:22:25.332,-1.00366,0.00317,-0.03198;
18:22:25.342,-1.01001,0.01416,-0.01245;
18:22:25.352,-1.01807,0.00806,0.01196;
18:22:25.362,-1.01172,-0.04712,0.01147;
18:22:25.372,-0.99561,-0.05493,0.02344;
18:22:25.382,-0.98535,-0.07007,0.01440;
18:22:25.392,-0.96558,-0.09766,0.00928;
18:22:25.402,-0.97388,-0.09131,0.01099;
18:22:25.412,-0.99487,-0.05127,-0.00220;
18:22:25.422,-1.02173,-0.01978,-0.00220;
18:22:25.432,-1.04858,-0.02124,0.00928;
18:22:25.442,-1.04102,-0.04077,0.02051;
18:22:25.452,-1.01855,-0.06567,0.01392;
18:22:25.462,-1.00464,-0.07861,0.01392;
18:22:25.472,-0.99658,-0.07813,0.01855;
18:22:25.482,-0.99048,-0.08081,0.02295;
18:22:25.492,-0.98779,-0.09106,0.02319;
18:22:25.502,-0.98462,-0.08911,0.02075;
18:22:25.512,-0.97485,-0.08398,0.02441;
18:22:25.522,-0.97266,-0.07373,0.03662;
18:22:25.532,-0.99243,-0.06372,0.04346;
18:22:25.542,-1.00952,-0.05322,0.03809;
18:22:25.552,-1.00537,-0.04053,0.02002;
18:22:25.562,-0.99048,-0.04517,0.01025;
18:22:25.572,-0.97925,-0.05176,0.01514;
18:22:25.582,-0.98853,-0.04175,0.00562;
18:22:25.592,-0.99854,-0.02417,-0.00977;
18:22:25.602,-1.01147,-0.02271,-0.00830;
18:22:25.612,-1.02588,-0.04297,0.01001;
18:22:25.622,-1.02271,-0.05029,0.03003;
18:22:25.632,-1.01587,-0.04932,0.03589;
18:22:25.642,-1.01123,-0.06030,0.02612;
18:22:25.652,-1.00806,-0.07495,0.01343;
18:22:25.662,-1.00903,-0.08545,0.00342;
18:22:25.672,-1.00781,-0.08130,0.00439;
18:22:25.682,-1.00513,-0.07300,0.01636;
18:22:25.692,-1.00781,-0.07959,0.03003;
18:22:25.702,-1.01196,-0.08789,0.03906;
18:22:25.712,-1.01270,-0.07739,0.03638;
18:22:25.722,-1.01025,-0.07324,0.02417;
18:22:25.732,-1.00244,-0.07617,0.01538;
18:22:25.742,-1.00098,-0.07300,0.01489;
18:22:25.752,-1.00903,-0.07104,0.01953;
18:22:25.762,-1.01001,-0.06323,0.02466;
18:22:25.772,-1.01025,-0.06030,0.02222;
18:22:25.782,-0.99927,-0.05811,0.00732;
18:22:25.792,-0.97974,-0.06079,-0.00317;
18:22:25.802,-0.97705,-0.06323,-0.00195;
18:22:25.812,-0.98364,-0.04980,-0.00610;
18:22:25.822,-0.99023,-0.04590,-0.01123;
18:22:25.832,-1.00049,-0.05029,-0.00952;
18:22:25.842,-0.99585,-0.05371,-0.01025;
18:22:25.852,-0.99487,-0.06348,0.00049;
18:22:25.862,-1.00220,-0.05542,0.01221;
18:22:25.872,-1.00317,-0.04492,0.01270;
18:22:25.882,-1.00244,-0.04614,0.00610;
18:22:25.892,-1.00122,-0.03735,-0.00439;
18:22:25.902,-1.00122,-0.03760,-0.00806;
18:22:25.912,-1.00317,-0.05737,0.00415;
18:22:25.922,-1.00854,-0.07373,0.01904;
18:22:25.932,-0.99902,-0.07520,0.01733;
18:22:25.942,-0.99072,-0.07324,0.01514;
18:22:25.952,-0.99780,-0.07642,0.02319;
18:22:25.962,-1.00806,-0.06836,0.03003;
18:22:25.972,-1.01636,-0.06592,0.02808;
18:22:25.982,-1.01440,-0.07471,0.02368;
18:22:25.992,-1.00269,-0.08276,0.01758;
18:22:26.002,-0.99194,-0.07813,0.01270;
18:22:26.012,-0.98389,-0.06934,0.01196;
18:22:26.022,-0.99194,-0.06006,0.01367;
18:22:26.032,-1.01343,-0.04614,0.02148;
18:22:26.042,-1.02856,-0.04102,0.01978;
18:22:26.052,-1.03271,-0.03735,0.01318;
18:22:26.062,-1.03296,-0.05249,0.01685;
18:22:26.072,-1.02588,-0.06348,0.01587;
18:22:26.082,-1.00928,-0.05713,0.00195;
18:22:26.092,-1.00098,-0.06226,-0.00757;
18:22:26.102,-0.97949,-0.06738,0.00122;
18:22:26.112,-0.99023,-0.06299,0.00952;
18:22:26.122,-1.00000,-0.06152,0.00586;
18:22:26.132,-0.99683,-0.05884,0.00269;
18:22:26.142,-0.99072,-0.05688,0.00269;
18:22:26.152,-0.98730,-0.06787,0.00952;
18:22:26.162,-0.99658,-0.05933,0.01807;
18:22:26.172,-0.99854,-0.03882,0.01196;
18:22:26.182,-0.98071,-0.04492,-0.00342;
18:22:26.192,-0.97559,-0.05444,-0.01904;
18:22:26.202,-0.99341,-0.04443,-0.01221;
18:22:26.212,-1.02612,-0.03833,0.00391;
18:22:26.222,-1.05396,-0.04419,0.01880;
18:22:26.232,-1.03442,-0.05664,0.02490;
18:22:26.242,-1.01318,-0.06177,0.02026;
18:22:26.252,-1.00537,-0.05396,0.01001;
18:22:26.262,-0.99268,-0.05737,0.00220;
18:22:26.272,-0.99438,-0.06909,0.00415;
18:22:26.282,-1.00244,-0.08203,0.01123;
18:22:26.292,-1.00757,-0.07520,0.01270;
18:22:26.302,-1.00830,-0.06323,0.00293;
18:22:26.312,-1.00903,-0.06543,-0.00146;
18:22:26.322,-1.00806,-0.06738,-0.00293;
18:22:26.332,-1.00342,-0.07910,-0.00464;
18:22:26.342,-0.99561,-0.08398,-0.00854;
18:22:26.352,-0.99097,-0.08032,-0.01440;
18:22:26.362,-0.99194,-0.06909,-0.02222;
18:22:26.372,-0.99097,-0.05615,-0.02954;
18:22:26.382,-0.99170,-0.06226,-0.02271;
18:22:26.392,-0.99878,-0.06616,-0.01074;
18:22:26.402,-1.00439,-0.05688,-0.00073;
18:22:26.412,-1.00537,-0.05640,0.00439;
18:22:26.422,-1.00708,-0.05713,0.00342;
18:22:26.432,-1.00269,-0.05347,-0.00684;
18:22:26.442,-0.99316,-0.06055,-0.00415;
18:22:26.452,-0.99341,-0.06763,0.00757;
18:22:26.462,-0.99536,-0.06348,0.00952;
18:22:26.472,-0.98804,-0.05908,0.00024;
18:22:26.482,-0.97803,-0.05933,-0.00977;
18:22:26.492,-0.98999,-0.06714,0.00171;
18:22:26.502,-1.00830,-0.07104,0.01758;
18:22:26.512,-1.01050,-0.06641,0.02734;
18:22:26.522,-1.00928,-0.06909,0.02588;
18:22:26.532,-1.00830,-0.06689,0.01953;
18:22:26.542,-1.00830,-0.04834,0.01270;
18:22:26.552,-1.01099,-0.03711,0.00244;
18:22:26.562,-1.01392,-0.05103,-0.00122;
18:22:26.572,-1.00708,-0.07837,0.00244;
18:22:26.582,-0.99976,-0.08496,0.00464;
18:22:26.592,-0.98975,-0.08228,0.00049;
18:22:26.602,-0.98364,-0.09058,0.00439;
18:22:26.612,-0.99707,-0.08765,0.01660;
18:22:26.622,-1.00415,-0.07983,0.02124;
18:22:26.632,-1.00391,-0.07959,0.01758;
18:22:26.642,-1.00049,-0.08008,0.00732;
18:22:26.652,-0.99658,-0.07397,0.00171;
18:22:26.662,-0.99316,-0.07593,0.01025;
18:22:26.672,-1.00098,-0.09521,0.03003;
18:22:26.682,-1.00879,-0.08911,0.03345;
18:22:26.692,-1.00928,-0.08496,0.02661;
18:22:26.702,-1.00854,-0.07690,0.01880;
18:22:26.712,-0.99609,-0.06812,0.01074;
18:22:26.722,-0.98633,-0.07935,0.00610;
18:22:26.732,-0.98706,-0.07837,0.00635;
18:22:26.742,-1.00684,-0.06738,0.02100;
18:22:26.752,-1.02295,-0.06006,0.02759;
18:22:26.762,-1.01782,-0.06860,0.02856;
18:22:26.772,-1.01904,-0.09644,0.03906;
18:22:26.782,-1.01050,-0.11377,0.03931;
18:22:26.792,-0.98682,-0.13257,0.01660;
18:22:26.802,-0.97607,-0.14453,0.00464;
18:22:26.812,-0.96704,-0.13086,0.00439;
18:22:26.822,-0.96948,-0.12891,0.01221;
18:22:26.832,-0.99951,-0.12134,0.03223;
18:22:26.842,-1.01929,-0.11914,0.03711;
18:22:26.852,-1.01489,-0.12476,0.03052;
18:22:26.862,-1.01904,-0.13672,0.03198;
18:22:26.872,-1.00391,-0.15137,0.02661;
18:22:26.882,-0.98901,-0.14355,0.02637;
18:22:26.892,-1.01245,-0.13721,0.05225;
18:22:26.902,-1.02441,-0.12598,0.04199;
18:22:26.912,-1.00562,-0.11914,0.03149;
18:22:26.922,-1.00122,-0.11865,0.02417;
18:22:26.932,-0.99194,-0.11499,0.02295;
18:22:26.942,-0.98389,-0.11792,0.02319;
18:22:26.952,-0.99561,-0.11353,0.02563;
18:22:26.962,-1.00195,-0.09375,0.02222;
18:22:26.972,-0.99829,-0.08691,0.01514;
18:22:26.982,-0.99634,-0.09229,0.01611;
18:22:26.992,-1.00391,-0.09253,0.01953;
18:22:27.002,-1.00781,-0.08765,0.01489;
18:22:27.012,-1.00342,-0.08472,0.00854;
18:22:27.022,-0.99536,-0.08081,0.00366;
18:22:27.032,-0.99438,-0.07080,0.00635;
18:22:27.042,-1.00049,-0.07031,0.01514;
18:22:27.052,-1.00220,-0.06982,0.01147;
18:22:27.062,-1.00391,-0.07129,0.00903;
18:22:27.072,-1.00659,-0.06958,0.00757;
18:22:27.082,-1.00562,-0.06299,-0.00098;
18:22:27.092,-0.99854,-0.06982,-0.01196;
18:22:27.102,-0.99414,-0.06934,-0.01465;
18:22:27.112,-0.99243,-0.06030,-0.01465;
18:22:27.122,-0.99927,-0.05884,-0.01758;
18:22:27.132,-0.99976,-0.05713,-0.01953;
18:22:27.142,-0.99707,-0.05664,-0.02197;
18:22:27.152,-0.99634,-0.05713,-0.02026;
18:22:27.162,-0.99341,-0.05371,-0.01343;
18:22:27.172,-0.99658,-0.04272,-0.01392;
18:22:27.182,-1.00879,-0.02368,-0.02734;
18:22:27.192,-1.01245,-0.01782,-0.02856;
18:22:27.202,-1.01001,-0.01294,-0.02954;
18:22:27.212,-1.00171,-0.01392,-0.03784;
18:22:27.222,-0.99292,-0.02490,-0.03931;
18:22:27.232,-0.99634,-0.02612,-0.04395;
18:22:27.242,-0.99878,-0.01660,-0.04907;
18:22:27.252,-1.00269,-0.01221,-0.04370;
18:22:27.262,-1.00977,0.00439,-0.04004;
18:22:27.272,-1.00586,0.01685,-0.04932;
18:22:27.282,-1.00415,0.00293,-0.05371;
18:22:27.292,-1.00830,-0.00659,-0.04346;
18:22:27.302,-1.00757,-0.01050,-0.04614;
18:22:27.312,-1.00879,-0.01514,-0.04712;
18:22:27.322,-1.00879,-0.00415,-0.03076;
18:22:27.332,-1.00903,-0.00293,-0.02368;
18:22:27.342,-1.00757,-0.00757,-0.03174;
18:22:27.352,-1.00342,-0.00732,-0.03735;
18:22:27.362,-1.00513,-0.00879,-0.03516;
18:22:27.372,-1.00708,-0.01245,-0.03369;
18:22:27.382,-1.00537,-0.01245,-0.02832;
18:22:27.392,-1.00513,-0.00806,-0.01782;
18:22:27.402,-1.00708,-0.00220,-0.02563;
18:22:27.412,-1.00854,-0.00977,-0.02905;
18:22:27.422,-1.01001,-0.02539,-0.02539;
18:22:27.432,-1.00732,-0.02905,-0.02539;
18:22:27.442,-1.00195,-0.01904,-0.03442;
18:22:27.452,-0.99585,-0.01221,-0.04321;
18:22:27.462,-0.99463,-0.01172,-0.04419;
18:22:27.472,-1.00146,-0.00610,-0.04272;
18:22:27.482,-1.00806,-0.00464,-0.03979;
18:22:27.492,-1.01074,-0.00879,-0.04224;
18:22:27.502,-1.01074,-0.01196,-0.04443;
18:22:27.512,-1.00610,-0.01196,-0.04736;
18:22:27.522,-1.00464,-0.00977,-0.04468;
18:22:27.532,-1.00464,-0.00562,-0.04736;
18:22:27.542,-1.00269,-0.01196,-0.04419;
18:22:27.552,-1.00244,-0.01465,-0.04565;
18:22:27.562,-1.00171,-0.01270,-0.04492;
18:22:27.572,-1.00659,-0.01270,-0.03418;
18:22:27.582,-1.00708,-0.00879,-0.03711;
18:22:27.592,-0.99097,-0.01563,-0.04004;
18:22:27.602,-1.00195,-0.01294,-0.03003;
18:22:27.612,-1.00806,-0.01587,-0.02808;
18:22:27.622,-1.00195,-0.01538,-0.03857;
18:22:27.632,-1.00317,-0.01831,-0.03345;
18:22:27.642,-1.01172,-0.01416,-0.02148;
18:22:27.652,-1.01318,-0.01733,-0.01953;
18:22:27.662,-1.00952,-0.02588,-0.01758;
18:22:27.672,-1.00513,-0.02246,-0.02051;
18:22:27.682,-1.00513,-0.00781,-0.02002;
18:22:27.692,-1.01904,0.02295,-0.02808;
18:22:27.702,-1.02539,0.01733,-0.03784;
18:22:27.712,-1.01465,-0.00562,-0.03467;
18:22:27.722,-1.00195,-0.01172,-0.04150;
18:22:27.732,-0.99146,-0.02393,-0.04443;
18:22:27.742,-0.98486,-0.02051,-0.04712;
18:22:27.752,-0.99146,-0.02002,-0.05078;
18:22:27.762,-1.00317,-0.01904,-0.03809;
18:22:27.772,-1.00391,-0.01367,-0.03174;
18:22:27.782,-1.00415,-0.02100,-0.03052;
18:22:27.792,-1.00391,-0.01953,-0.02661;
18:22:27.802,-1.00415,-0.01123,-0.03247;
18:22:27.812,-1.00977,-0.00781,-0.03589;
18:22:27.822,-1.01099,-0.00269,-0.03516;
18:22:27.832,-1.00342,-0.00342,-0.03589;
18:22:27.842,-1.00269,-0.00635,-0.03296;
18:22:27.852,-1.00317,-0.01025,-0.03394;
18:22:27.862,-1.00098,-0.02173,-0.03101;
18:22:27.872,-1.00342,-0.02271,-0.03320;
18:22:27.882,-1.00049,-0.01660,-0.03809;
18:22:27.892,-1.00024,-0.01172,-0.03467;
18:22:27.902,-1.00830,-0.00732,-0.03491;
18:22:27.912,-1.00879,-0.00415,-0.04321;
18:22:27.922,-1.00146,-0.00830,-0.04956;
18:22:27.932,-0.99683,-0.01465,-0.04736;
18:22:27.942,-0.99219,-0.02393,-0.03735;
18:22:27.952,-0.99927,-0.03394,-0.02881;
18:22:27.962,-1.01001,-0.03076,-0.02783;
18:22:27.972,-1.01147,-0.03003,-0.03809;
18:22:27.982,-1.01172,-0.02661,-0.04370;
18:22:27.992,-1.00439,-0.02222,-0.05151;
18:22:28.002,-0.99731,-0.02930,-0.06348;
18:22:28.012,-0.99634,-0.02539,-0.07373;
18:22:28.022,-1.00098,-0.01196,-0.07617;
18:22:28.032,-1.00757,-0.00903,-0.06787;
18:22:28.042,-1.00537,-0.00586,-0.06372;
18:22:28.052,-1.00244,-0.00488,-0.06055;
18:22:28.062,-1.00610,-0.01050,-0.05591;
18:22:28.072,-1.00684,-0.01294,-0.06274;
18:22:28.082,-1.00415,-0.00952,-0.06152;
18:22:28.092,-1.00928,-0.00977,-0.05151;
18:22:28.102,-1.00928,-0.00952,-0.05786;
18:22:28.112,-1.00366,-0.01294,-0.06714;
18:22:28.122,-1.00195,-0.02344,-0.07080;
18:22:28.132,-0.99902,-0.02881,-0.07251;
18:22:28.142,-1.00488,-0.02905,-0.07129;
18:22:28.152,-1.00293,-0.02124,-0.07373;
18:22:28.162,-1.00098,-0.01318,-0.07251;
18:22:28.172,-1.00635,-0.01123,-0.06055;
18:22:28.182,-1.00098,-0.01221,-0.06519;
18:22:28.192,-1.00098,-0.01807,-0.06494;
18:22:28.202,-1.01123,-0.01611,-0.06372;
18:22:28.212,-1.01074,-0.00732,-0.06812;
18:22:28.222,-1.00513,-0.00684,-0.06689;
18:22:28.232,-1.00513,-0.00635,-0.06616;
18:22:28.242,-1.00439,0.00049,-0.06323;
18:22:28.252,-1.00537,-0.00098,-0.06372;
18:22:28.262,-1.01392,-0.00903,-0.06128;
18:22:28.272,-1.01294,-0.01001,-0.06714;
18:22:28.282,-1.00488,-0.01367,-0.07642;
18:22:28.292,-0.99951,-0.01318,-0.08154;
18:22:28.302,-0.99243,-0.01318,-0.08569;
18:22:28.312,-0.98877,-0.02051,-0.08716;
18:22:28.322,-0.99048,-0.02734,-0.08569;
18:22:28.332,-0.99194,-0.01440,-0.07300;
18:22:28.342,-0.99292,-0.03320,-0.06079;
18:22:28.352,-1.00391,-0.02832,-0.05542;
18:22:28.362,-1.00830,-0.01733,-0.04785;
18:22:28.372,-1.01123,-0.01172,-0.05835;
18:22:28.382,-1.01245,-0.01270,-0.05444;
18:22:28.392,-1.00806,-0.00903,-0.06372;
18:22:28.402,-1.00122,-0.00073,-0.07153;
18:22:28.412,-1.00317,0.00830,-0.06396;
18:22:28.422,-1.01245,0.00610,-0.05493;
18:22:28.432,-1.01147,0.00000,-0.06104;
18:22:28.442,-1.00854,-0.01172,-0.06592;
18:22:28.452,-1.00024,-0.01538,-0.06934;
18:22:28.462,-0.99146,-0.02075,-0.07080;
18:22:28.472,-0.98535,-0.02539,-0.07007;
18:22:28.482,-0.99146,-0.01880,-0.06836;
18:22:28.492,-1.00610,-0.01196,-0.05591;
18:22:28.502,-1.01074,-0.00098,-0.04834;
18:22:28.512,-1.00854,-0.00439,-0.05493;
18:22:28.522,-1.00928,-0.01099,-0.05542;
18:22:28.532,-1.01294,-0.01367,-0.05225;
18:22:28.542,-1.01099,-0.01880,-0.05176;
18:22:28.552,-1.00928,-0.02173,-0.05591;
18:22:28.562,-1.00220,-0.02368,-0.06641;
18:22:28.572,-0.99341,-0.03369,-0.06665;
18:22:28.582,-0.98950,-0.03101,-0.07056;
18:22:28.592,-0.98926,-0.01782,-0.07007;
18:22:28.602,-1.00146,-0.01587,-0.05200;
18:22:28.612,-1.01025,-0.01831,-0.03784;
18:22:28.622,-1.01294,-0.02222,-0.02783;
18:22:28.632,-1.01758,-0.01978,-0.03003;
18:22:28.642,-1.01782,-0.01587,-0.03271;
18:22:28.652,-1.01489,-0.01416,-0.03003;
18:22:28.662,-1.01270,-0.02148,-0.03345;
18:22:28.672,-1.00854,-0.02026,-0.03882;
18:22:28.682,-1.00146,-0.01465,-0.04126;
18:22:28.692,-1.00439,-0.01563,-0.04102;
18:22:28.702,-1.00464,-0.01465,-0.04346;
18:22:28.712,-1.00439,-0.01147,-0.04688;
18:22:28.722,-1.00366,-0.00806,-0.05054;
18:22:28.732,-0.99756,-0.00928,-0.06030;
18:22:28.742,-0.99658,-0.01001,-0.06152;
18:22:28.752,-0.99854,-0.01025,-0.05542;
18:22:28.762,-0.99927,-0.01465,-0.05078;
18:22:28.772,-1.00195,-0.01831,-0.04541;
18:22:28.782,-1.00610,-0.01807,-0.03955;
18:22:28.792,-1.00366,-0.01709,-0.03613;
18:22:28.802,-1.00415,-0.01611,-0.03296;
18:22:28.812,-1.00757,-0.00903,-0.03052;
18:22:28.822,-1.00830,-0.01025,-0.03418;
18:22:28.832,-1.01001,-0.01709,-0.03027;
18:22:28.842,-1.00488,-0.01953,-0.03101;
18:22:28.852,-0.99902,-0.02588,-0.03076;
18:22:28.862,-0.99805,-0.02930,-0.02905;
18:22:28.872,-0.99805,-0.02466,-0.03174;
18:22:28.882,-1.00122,-0.01904,-0.03198;
18:22:28.892,-1.00342,-0.01685,-0.03223;
18:22:28.902,-1.00269,-0.02441,-0.03027;
18:22:28.912,-1.00073,-0.03369,-0.02393;
18:22:28.922,-1.00195,-0.04077,-0.01636;
18:22:28.932,-1.00513,-0.04102,-0.01855;
18:22:28.942,-1.00586,-0.03882,-0.01978;
18:22:28.952,-1.00684,-0.04272,-0.02368;
18:22:28.962,-1.00098,-0.03687,-0.02710;
18:22:28.972,-0.99927,-0.03442,-0.02515;
18:22:28.982,-1.00708,-0.03369,-0.01660;
18:22:28.992,-1.00903,-0.03052,-0.01074;
18:22:29.002,-1.00903,-0.03662,-0.01392;
18:22:29.012,-1.01099,-0.03271,-0.01880;
18:22:29.022,-1.00684,-0.02710,-0.02637;
18:22:29.032,-1.00024,-0.03149,-0.02661;
18:22:29.042,-1.00073,-0.03613,-0.02588;
18:22:29.052,-0.99902,-0.03149,-0.03149;
18:22:29.062,-0.99634,-0.02783,-0.04028;
18:22:29.072,-1.00366,-0.02441,-0.03857;
18:22:29.082,-1.01099,-0.01318,-0.03589;
18:22:29.092,-1.01465,-0.01514,-0.04639;
18:22:29.102,-1.00879,-0.01880,-0.05518;
18:22:29.112,-1.00220,-0.02222,-0.05078;
18:22:29.122,-1.00513,-0.01660,-0.05737;
18:22:29.132,-1.00122,-0.01367,-0.05469;
18:22:29.142,-0.99683,-0.00806,-0.05322;
18:22:29.152,-1.00195,-0.00854,-0.05127;
18:22:29.162,-1.00220,-0.00806,-0.05176;
18:22:29.172,-1.00415,-0.01050,-0.04517;
18:22:29.182,-1.00586,-0.00830,-0.04321;
18:22:29.192,-0.99951,-0.01196,-0.04956;
18:22:29.202,-1.00439,-0.01196,-0.04297;
18:22:29.212,-1.01123,-0.00439,-0.03271;
18:22:29.222,-1.01172,-0.00317,-0.03174;
18:22:29.232,-1.00928,-0.00342,-0.03540;
18:22:29.242,-1.00439,-0.01196,-0.04907;
18:22:29.252,-0.99902,-0.01465,-0.05078;
18:22:29.262,-1.00073,-0.01709,-0.04346;
18:22:29.272,-1.00391,-0.01733,-0.04175;
18:22:29.282,-1.00122,-0.01196,-0.04297;
18:22:29.292,-1.00415,-0.01782,-0.04712;
18:22:29.302,-1.00049,-0.02026,-0.04907;
18:22:29.312,-0.99268,-0.02808,-0.04761;
18:22:29.322,-0.99756,-0.03345,-0.04199;
18:22:29.332,-1.00366,-0.02734,-0.03735;
18:22:29.342,-1.00659,-0.02295,-0.04468;
18:22:29.352,-1.00635,-0.02124,-0.04370;
18:22:29.362,-1.00757,-0.01294,-0.03833;
18:22:29.372,-1.00610,-0.00562,-0.03931;
18:22:29.382,-1.00342,-0.00781,-0.04419;
18:22:29.392,-1.00342,-0.01147,-0.04932;
18:22:29.402,-1.00562,-0.01099,-0.04956;
18:22:29.412,-1.00415,-0.00684,-0.04541;
18:22:29.422,-1.00269,-0.00537,-0.03955;
18:22:29.432,-1.00439,-0.00317,-0.04272;
18:22:29.442,-1.00513,-0.00610,-0.04517;
18:22:29.452,-1.00391,-0.01416,-0.04639;
18:22:29.462,-1.00195,-0.01660,-0.04712;
18:22:29.472,-1.00830,0.00781,-0.03760;
18:22:29.482,-1.01025,0.00269,-0.03247;
18:22:29.492,-1.01099,-0.01050,-0.03052;
18:22:29.502,-1.01221,-0.01685,-0.02905;
18:22:29.512,-1.01050,-0.01416,-0.03467;
18:22:29.522,-1.00732,-0.01880,-0.04053;
18:22:29.532,-1.00122,-0.02441,-0.04199;
18:22:29.542,-0.99976,-0.02954,-0.04932;
18:22:29.552,-0.99951,-0.02783,-0.05127;
18:22:29.562,-1.00391,-0.02124,-0.04248;
18:22:29.572,-1.00708,-0.01172,-0.03687;
18:22:29.582,-1.00806,-0.00732,-0.02808;
18:22:29.592,-1.01123,-0.00977,-0.01538;
18:22:29.602,-1.01563,-0.01147,-0.00903;
18:22:29.612,-1.01514,-0.01416,-0.00684;
18:22:29.622,-1.01050,-0.01099,-0.01367;
18:22:29.632,-1.00806,-0.00806,-0.02686;
18:22:29.642,-1.00586,-0.00928,-0.03320;
18:22:29.652,-1.00342,-0.00562,-0.03613;
18:22:29.662,-1.00366,-0.00635,-0.04199;
18:22:29.672,-1.00098,-0.00488,-0.04688;
18:22:29.682,-0.99756,-0.00562,-0.04736;
18:22:29.692,-1.00171,-0.00586,-0.04883;
18:22:29.702,-1.00293,-0.01318,-0.04565;
18:22:29.712,-0.99976,-0.02783,-0.03979;
18:22:29.722,-0.99951,-0.02954,-0.03638;
18:22:29.732,-1.00073,-0.01855,-0.03760;
18:22:29.742,-1.00439,-0.01392,-0.03418;
18:22:29.752,-1.00830,-0.01367,-0.02881;
18:22:29.762,-1.00464,-0.01343,-0.02734;
18:22:29.772,-1.00342,-0.02246,-0.02100;
18:22:29.782,-1.00366,-0.02100,-0.01807;
18:22:29.792,-1.00781,-0.01221,-0.03027;
18:22:29.802,-1.00732,-0.01563,-0.02246;
18:22:29.812,-1.00195,-0.02295,-0.02881;
18:22:29.822,-1.00146,-0.02466,-0.03613;
18:22:29.832,-1.00342,-0.02124,-0.03467;
18:22:29.842,-1.00391,-0.02441,-0.03369;
18:22:29.852,-0.99951,-0.02466,-0.03003;
18:22:29.862,-0.99878,-0.02588,-0.03296;
18:22:29.872,-1.00073,-0.02393,-0.03296;
18:22:29.882,-1.01074,-0.02075,-0.02637;
18:22:29.892,-1.01538,-0.02026,-0.02295;
18:22:29.902,-1.01221,-0.01538,-0.02563;
18:22:29.912,-1.00366,-0.01953,-0.03296;
18:22:29.922,-0.99536,-0.02612,-0.03662;
18:22:29.932,-0.99731,-0.02515,-0.03271;
18:22:29.942,-1.00220,-0.02466,-0.03320;
18:22:29.952,-1.00513,-0.02881,-0.03369;
18:22:29.962,-1.00562,-0.02612,-0.03979;
18:22:29.972,-1.00293,-0.01758,-0.04907;
18:22:29.982,-0.99805,-0.01709,-0.05200;
18:22:29.992,-0.99878,-0.01953,-0.04541;
18:22:30.002,-1.00195,-0.02393,-0.04199;
18:22:30.012,-1.00439,-0.02686,-0.03809;
18:22:30.022,-1.00806,-0.02490,-0.03760;
18:22:30.032,-1.00562,-0.02344,-0.04932;
18:22:30.042,-0.99951,-0.02100,-0.04761;
18:22:30.052,-0.99683,-0.02368,-0.04102;
18:22:30.062,-1.00439,-0.02417,-0.03076;
18:22:30.072,-1.01123,-0.02002,-0.03101;
18:22:30.082,-1.01050,-0.02368,-0.04004;
18:22:30.092,-1.00806,-0.02051,-0.04321;
18:22:30.102,-1.00488,-0.01660,-0.05127;
18:22:30.112,-1.00562,-0.01587,-0.05322;
18:22:30.122,-1.00659,-0.02197,-0.04932;
18:22:30.132,-1.00684,-0.02051,-0.05518;
18:22:30.142,-1.00146,-0.01758,-0.06470;
18:22:30.152,-0.99585,-0.02295,-0.06787;
18:22:30.162,-0.99341,-0.01978,-0.06592;
18:22:30.172,-0.99561,-0.02075,-0.06226;
18:22:30.182,-1.00342,-0.01904,-0.05811;
18:22:30.192,-1.00928,-0.01123,-0.05811;
18:22:30.202,-1.01099,-0.00513,-0.06079;
18:22:30.212,-1.00977,-0.00171,-0.05908;
18:22:30.222,-1.00635,-0.00366,-0.05908;
18:22:30.232,-1.00317,-0.01636,-0.05713;
18:22:30.242,-1.00293,-0.02246,-0.05054;
18:22:30.252,-1.00317,-0.02295,-0.05444;
18:22:30.262,-1.00830,-0.02002,-0.05249;
18:22:30.272,-1.00977,-0.01782,-0.04590;
18:22:30.282,-1.00635,-0.01978,-0.05371;
18:22:30.292,-1.00244,-0.01318,-0.06152;
18:22:30.302,-0.99829,-0.01685,-0.06372;
18:22:30.312,-1.00049,-0.01611,-0.06030;
18:22:30.322,-1.00195,-0.01416,-0.05615;
18:22:30.332,-1.00049,-0.02026,-0.05347;
18:22:30.342,-1.00317,-0.01392,-0.05273;
18:22:30.352,-1.00244,-0.01440,-0.05322;
18:22:30.362,-0.99756,-0.02393,-0.05127;
18:22:30.372,-1.00000,-0.02490,-0.05249;
18:22:30.382,-1.00171,-0.01904,-0.05273;
18:22:30.392,-1.00220,-0.01709,-0.04761;
18:22:30.402,-1.00366,-0.01685,-0.04565;
18:22:30.412,-1.00586,-0.01465,-0.04297;
18:22:30.422,-1.00854,-0.01343,-0.04126;
18:22:30.432,-1.00732,-0.01611,-0.04297;
18:22:30.442,-1.00586,-0.02319,-0.04077;
18:22:30.452,-1.00366,-0.02393,-0.04004;
18:22:30.462,-1.00269,-0.02100,-0.05176;
18:22:30.472,-1.00562,-0.01733,-0.05225;
18:22:30.482,-1.00342,-0.01440,-0.05566;
18:22:30.492,-0.99316,-0.01611,-0.05884;
18:22:30.502,-0.99072,-0.01416,-0.05078;
18:22:30.512,-1.00049,-0.00732,-0.04102;
18:22:30.522,-1.01099,-0.00317,-0.03369;
18:22:30.532,-1.01563,0.00073,-0.03809;
18:22:30.542,-1.01001,-0.00562,-0.03906;
18:22:30.552,-1.00659,-0.01025,-0.04761;
18:22:30.562,-1.00391,-0.01025,-0.04272;
18:22:30.572,-1.00757,-0.01880,-0.03052;
18:22:30.582,-1.01001,-0.01221,-0.02759;
18:22:30.592,-1.01440,-0.00977,-0.02417;
18:22:30.602,-1.01050,-0.00317,-0.03052;
18:22:30.612,-1.00439,-0.00830,-0.03564;
18:22:30.622,-1.00195,-0.01294,-0.03223;
18:22:30.632,-1.00366,-0.01367,-0.03174;
18:22:30.642,-1.00781,-0.01611,-0.02856;
18:22:30.652,-1.00684,-0.01318,-0.02856;
18:22:30.662,-1.00464,-0.00977,-0.02905;
18:22:30.672,-1.00244,-0.00708,-0.02979;
18:22:30.682,-1.00342,-0.00659,-0.03076;
18:22:30.692,-1.00903,-0.00952,-0.02783;
18:22:30.702,-1.01147,-0.00952,-0.02710;
18:22:30.712,-1.00952,-0.00854,-0.02954;
18:22:30.722,-1.00562,-0.01123,-0.03247;
18:22:30.732,-0.99976,-0.01514,-0.03052;
18:22:30.742,-1.00049,-0.01636,-0.03125;
18:22:30.752,-1.00244,-0.00879,-0.03320;
18:22:30.762,-1.00366,-0.00757,-0.02490;
18:22:30.772,-1.00684,-0.01074,-0.02588;
18:22:30.782,-1.00439,-0.01074,-0.02905;
18:22:30.792,-1.00342,-0.01245,-0.02808;
18:22:30.802,-1.00464,-0.01294,-0.02686;
18:22:30.812,-1.00488,-0.01636,-0.02222;
18:22:30.822,-1.00562,-0.01685,-0.02173;
18:22:30.832,-1.00317,-0.01587,-0.02808;
18:22:30.842,-0.99951,-0.01636,-0.03149;
18:22:30.852,-0.99902,-0.01343,-0.03101;
18:22:30.862,-1.00342,-0.01270,-0.02612;
18:22:30.872,-1.00903,-0.01782,-0.01782;
18:22:30.882,-1.01123,-0.01538,-0.01538;
18:22:30.892,-1.01172,-0.01245,-0.01831;
18:22:30.902,-1.00659,-0.01074,-0.02441;
18:22:30.912,-1.00391,-0.01514,-0.02588;
18:22:30.922,-1.00635,-0.01880,-0.02319;
18:22:30.932,-1.00928,-0.01367,-0.02563;
18:22:30.942,-1.01050,-0.01563,-0.02710;
18:22:30.952,-1.00928,-0.01709,-0.03027;
18:22:30.962,-1.00537,-0.01807,-0.03638;
18:22:30.972,-0.99951,-0.02515,-0.03711;
18:22:30.982,-0.99927,-0.03369,-0.03174;
18:22:30.992,-0.99976,-0.03345,-0.03149;
18:22:31.002,-1.00220,-0.02930,-0.03345;
18:22:31.012,-1.00098,-0.02490,-0.03516;
18:22:31.022,-0.99951,-0.02246,-0.03394;
18:22:31.032,-1.00366,-0.02075,-0.02661;
18:22:31.042,-1.00903,-0.02441,-0.02612;
18:22:31.052,-1.00781,-0.02368,-0.02686;
18:22:31.062,-1.00732,-0.02832,-0.02466;
18:22:31.072,-1.00293,-0.02637,-0.02490;
18:22:31.082,-0.99878,-0.02002,-0.02246;
18:22:31.092,-1.00488,-0.01953,-0.02319;
18:22:31.102,-1.00513,-0.01416,-0.02588;
18:22:31.112,-1.00586,-0.01807,-0.02344;
18:22:31.122,-1.00806,-0.01636,-0.01831;
18:22:31.132,-1.01147,-0.02026,-0.01855;
18:22:31.142,-1.00952,-0.02002,-0.03076;
18:22:31.152,-1.00586,-0.01929,-0.04297;
18:22:31.162,-1.00171,-0.01831,-0.05151;
18:22:31.172,-0.99756,-0.01758,-0.05176;
18:22:31.182,-0.99561,-0.02246,-0.04761;
18:22:31.192,-0.99780,-0.02417,-0.04004;
18:22:31.202,-1.00635,-0.02881,-0.04102;
18:22:31.212,-1.00635,-0.02515,-0.04834;
18:22:31.222,-1.00781,-0.01831,-0.05029;
18:22:31.232,-1.00488,-0.01294,-0.05664;
18:22:31.242,-0.99805,-0.01147,-0.05640;
18:22:31.252,-1.00024,-0.01025,-0.04810;
18:22:31.262,-1.00537,-0.00879,-0.04272;
18:22:31.272,-1.00928,-0.01050,-0.03906;
18:22:31.282,-1.01196,-0.01416,-0.03735;
18:22:31.292,-1.00366,-0.00903,-0.04517;
18:22:31.302,-0.99829,-0.00854,-0.04883;
18:22:31.312,-1.00049,-0.02148,-0.05029;
18:22:31.322,-1.00220,-0.01196,-0.05396;
18:22:31.332,-0.99805,-0.01587,-0.05566;
18:22:31.342,-0.99316,-0.01343,-0.05713;
18:22:31.352,-0.99683,-0.01367,-0.05737;
18:22:31.362,-0.99609,-0.01685,-0.04907;
18:22:31.372,-1.00146,-0.02637,-0.04199;
18:22:31.382,-1.00562,-0.02222,-0.03320;
18:22:31.392,-1.00684,-0.01050,-0.04004;
18:22:31.402,-1.00952,-0.00708,-0.03589;
18:22:31.412,-1.00952,-0.00122,-0.03467;
18:22:31.422,-1.00708,-0.01099,-0.04053;
18:22:31.432,-1.00439,-0.01514,-0.03711;
18:22:31.442,-1.00220,-0.00659,-0.03711;
18:22:31.452,-1.00024,-0.00781,-0.04272;
18:22:31.462,-1.00098,-0.00586,-0.04346;
18:22:31.472,-1.00122,-0.00342,-0.04443;
18:22:31.482,-1.00269,-0.00757,-0.04614;
18:22:31.492,-1.00732,-0.00708,-0.04639;
18:22:31.502,-1.00610,-0.00586,-0.04663;
18:22:31.512,-1.00049,0.00024,-0.04736;
18:22:31.522,-0.99609,-0.00171,-0.05225;
18:22:31.532,-0.99634,-0.00830,-0.04614;
18:22:31.542,-1.00391,-0.00562,-0.03979;
18:22:31.552,-1.01367,-0.00757,-0.03345;
18:22:31.562,-1.01807,-0.00684,-0.02515;
18:22:31.572,-1.01318,-0.00269,-0.02930;
18:22:31.582,-1.00854,-0.00562,-0.03442;
18:22:31.592,-1.00879,-0.00464,-0.03271;
18:22:31.602,-1.00757,-0.00146,-0.03247;
18:22:31.612,-1.00806,-0.00659,-0.03149;
18:22:31.622,-1.01245,-0.00635,-0.02612;
18:22:31.632,-1.01099,-0.00415,-0.02832;
18:22:31.642,-1.01099,-0.01221,-0.03223;
18:22:31.652,-1.00830,-0.01172,-0.03418;
18:22:31.662,-1.00073,-0.01343,-0.03955;
18:22:31.672,-0.99829,-0.01904,-0.03955;
18:22:31.682,-1.00269,-0.00806,-0.03516;
18:22:31.692,-1.00610,-0.00073,-0.03271;
18:22:31.702,-1.00464,-0.00562,-0.03003;
18:22:31.712,-1.00659,-0.00562,-0.01978;
18:22:31.722,-1.00830,-0.00391,-0.01294;
18:22:31.732,-1.00879,-0.00610,-0.01123;
18:22:31.742,-1.00806,-0.00830,-0.01587;
18:22:31.752,-1.00684,-0.00806,-0.01685;
18:22:31.762,-1.00586,-0.00684,-0.01709;
18:22:31.772,-1.00537,-0.00562,-0.01709;
18:22:31.782,-1.00317,0.00171,-0.01611;
18:22:31.792,-1.00439,0.00562,-0.01489;
18:22:31.802,-1.00928,0.00342,-0.00562;
18:22:31.812,-1.01099,0.00122,-0.00806;
18:22:31.822,-1.00659,-0.00366,-0.01367;
18:22:31.832,-1.00049,-0.00977,-0.01489;
18:22:31.842,-0.99951,-0.00903,-0.01538;
18:22:31.852,-1.00195,-0.00586,-0.01416;
18:22:31.862,-1.00806,-0.00537,-0.01392;
18:22:31.872,-1.00732,-0.00317,-0.01245;
18:22:31.882,-1.00415,-0.00635,-0.01196;
18:22:31.892,-1.00122,-0.00586,-0.01001;
18:22:31.902,-1.00073,-0.00684,-0.01025;
18:22:31.912,-1.00391,-0.00952,-0.00488;
18:22:31.922,-1.00464,-0.00879,-0.00244;
18:22:31.932,-1.00635,-0.01147,-0.00757;
18:22:31.942,-1.00513,-0.00391,-0.00684;
18:22:31.952,-1.00708,0.00171,-0.00757;
18:22:31.962,-1.00977,-0.00073,-0.00928;
18:22:31.972,-1.01074,0.00146,-0.00757;
18:22:31.982,-1.01001,-0.00854,-0.00879;
18:22:31.992,-1.00562,-0.01050,-0.01050;
18:22:32.002,-1.00391,-0.00781,-0.01367;
18:22:32.012,-1.00342,-0.01025,-0.01929;
18:22:32.022,-0.99976,-0.01416,-0.01514;
18:22:32.032,-1.00830,-0.01172,-0.00269;
18:22:32.042,-1.00903,-0.01196,-0.01001;
18:22:32.052,-1.00439,-0.01245,-0.01050;
18:22:32.062,-1.00269,-0.02026,-0.00635;
18:22:32.072,-1.00732,-0.01880,-0.00439;
18:22:32.082,-1.01074,-0.01270,-0.00879;
18:22:32.092,-1.00269,-0.02124,-0.00781;
18:22:32.102,-0.99902,-0.02051,-0.01025;
18:22:32.112,-0.99268,-0.02222,-0.01001;
18:22:32.122,-0.99609,-0.01660,-0.00757;
18:22:32.132,-1.00879,-0.00806,-0.00439;
18:22:32.142,-1.01514,-0.00659,0.00220;
18:22:32.152,-1.01514,-0.01074,-0.00098;
18:22:32.162,-1.00732,-0.01416,-0.00488;
18:22:32.172,-1.00049,-0.00928,-0.01025;
18:22:32.182,-1.00439,-0.00928,-0.01147;
18:22:32.192,-1.01074,-0.01489,-0.01563;
18:22:32.202,-1.01025,-0.01440,-0.02539;
18:22:32.212,-1.00269,-0.01196,-0.02808;
18:22:32.222,-0.99487,-0.01465,-0.03101;
18:22:32.232,-0.99609,-0.01611,-0.02954;
18:22:32.242,-1.00195,-0.01318,-0.02808;
18:22:32.252,-1.00952,-0.00928,-0.02563;
18:22:32.262,-1.01172,-0.00684,-0.02808;
18:22:32.272,-1.01172,-0.00488,-0.02710;
18:22:32.282,-1.00781,-0.00122,-0.02441;
18:22:32.292,-1.00439,-0.00244,-0.03223;
18:22:32.302,-1.00146,-0.00659,-0.03442;
18:22:32.312,-1.00073,-0.00586,-0.03467;
18:22:32.322,-1.00342,-0.00122,-0.03296;
18:22:32.332,-1.00562,0.00049,-0.02393;
18:22:32.342,-1.01074,-0.00049,-0.01904;
18:22:32.352,-1.01392,0.00586,-0.01685;
18:22:32.362,-1.01538,0.00122,-0.01807;
18:22:32.372,-1.01001,-0.00024,-0.02466;
18:22:32.382,-1.00610,-0.00098,-0.03052;
18:22:32.392,-1.00415,-0.00708,-0.03198;
18:22:32.402,-1.00073,-0.00293,-0.03271;
18:22:32.412,-1.00220,-0.00635,-0.03369;
18:22:32.422,-1.00513,-0.01587,-0.03271;
18:22:32.432,-1.00439,-0.01123,-0.03296;
18:22:32.442,-1.00317,-0.01172,-0.02881;
18:22:32.452,-1.00439,-0.01465,-0.02783;
18:22:32.462,-1.00317,-0.01221,-0.02759;
18:22:32.472,-1.00391,-0.01196,-0.02734;
18:22:32.482,-1.00171,-0.01270,-0.03223;
18:22:32.492,-1.00293,-0.01587,-0.02734;
18:22:32.502,-1.00342,-0.01147,-0.02856;
18:22:32.512,-1.00635,-0.01196,-0.02808;
18:22:32.522,-1.01196,-0.01587,-0.02417;
18:22:32.532,-1.00952,-0.00439,-0.02881;
18:22:32.542,-1.00732,-0.00269,-0.03052;
18:22:32.552,-1.00537,-0.00562,-0.03296;
18:22:32.562,-1.00464,-0.00903,-0.03223;
18:22:32.572,-1.00488,-0.01270,-0.03271;
18:22:32.582,-1.00586,-0.01050,-0.02808;
18:22:32.592,-1.00439,-0.01294,-0.03125;
18:22:32.602,-1.00317,-0.01099,-0.03418;
18:22:32.612,-1.00610,-0.01025,-0.02954;
18:22:32.622,-1.00562,-0.00854,-0.02954;
18:22:32.632,-1.00317,-0.01196,-0.03149;
18:22:32.642,-1.00366,-0.01270,-0.03198;
18:22:32.652,-1.00391,-0.01245,-0.03149;
18:22:32.662,-1.00098,-0.01123,-0.03296;
18:22:32.672,-1.00439,-0.01001,-0.03174;
18:22:32.682,-1.00635,-0.00806,-0.03174;
18:22:32.692,-1.00073,-0.00684,-0.03271;
18:22:32.702,-1.00244,-0.00879,-0.03052;
18:22:32.712,-1.00562,-0.00586,-0.02271;
18:22:32.722,-1.00586,-0.00537,-0.02417;
18:22:32.732,-1.00732,-0.00537,-0.02832;
18:22:32.742,-1.00757,-0.00610,-0.03125;
18:22:32.752,-1.00806,-0.00244,-0.03027;
18:22:32.762,-1.00854,-0.00024,-0.02441;
18:22:32.772,-1.00952,-0.01123,-0.01733;
18:22:32.782,-1.00854,-0.01270,-0.02588;
18:22:32.792,-1.00317,-0.01099,-0.02148;
18:22:32.802,-1.00464,-0.01050,-0.01465;
18:22:32.812,-1.00879,-0.01147,-0.01538;
18:22:32.822,-1.00806,-0.00977,-0.01563;
18:22:32.832,-1.00806,-0.00806,-0.01465;
18:22:32.842,-1.00781,-0.01001,-0.01660;
18:22:32.852,-1.00659,-0.00732,-0.01465;
18:22:32.862,-1.00366,-0.00146,-0.00781;
18:22:32.872,-1.00488,-0.00269,-0.00586;
18:22:32.882,-1.00610,0.00366,-0.00659;
18:22:32.892,-1.00586,0.00293,-0.01318;
18:22:32.902,-1.00732,-0.00708,-0.01514;
18:22:32.912,-1.00757,-0.00317,-0.01392;
18:22:32.922,-1.00610,-0.00122,-0.01978;
18:22:32.932,-1.00415,-0.00415,-0.02197;
18:22:32.942,-1.00317,-0.00659,-0.02197;
18:22:32.952,-1.00049,-0.01099,-0.02588;
18:22:32.962,-0.99878,-0.01392,-0.02100;
18:22:32.972,-1.00342,-0.01709,-0.02124;
18:22:32.982,-1.00586,-0.01294,-0.02246;
18:22:32.992,-1.00464,-0.01538,-0.01880;
18:22:33.002,-1.00366,-0.01074,-0.01904;
18:22:33.012,-1.00122,-0.00879,-0.01465;
18:22:33.022,-1.00464,-0.01440,-0.01245;
18:22:33.032,-1.00928,-0.00537,-0.01392;
18:22:33.042,-1.01147,-0.00977,-0.01001;
18:22:33.052,-1.01367,-0.00732,-0.00977;
18:22:33.062,-1.01050,-0.00879,-0.01196;
18:22:33.072,-1.00757,-0.00854,-0.01489;
18:22:33.082,-1.00073,-0.00708,-0.01953;
18:22:33.092,-0.99927,-0.01294,-0.01758;
18:22:33.102,-1.00293,-0.00830,-0.01855;
18:22:33.112,-1.00220,-0.00952,-0.02100;
18:22:33.122,-1.00366,-0.00977,-0.02002;
18:22:33.132,-1.00439,-0.00879,-0.02197;
18:22:33.142,-1.00439,-0.00952,-0.02295;
18:22:33.152,-1.00269,-0.00781,-0.02075;
18:22:33.162,-1.00488,-0.00806,-0.02222;
18:22:33.172,-1.00659,-0.00610,-0.02344;
18:22:33.182,-1.00439,-0.01050,-0.02026;
18:22:33.192,-1.00537,-0.01294,-0.01831;
18:22:33.202,-1.00366,-0.01099,-0.01807;
18:22:33.212,-1.00195,-0.01465,-0.01978;
18:22:33.222,-1.00366,-0.01489,-0.01782;
18:22:33.232,-1.00513,-0.01343,-0.01685;
18:22:33.242,-1.00562,-0.01099,-0.01855;
18:22:33.252,-1.00439,-0.01465,-0.01978;
18:22:33.262,-1.00293,-0.01611,-0.01758;
18:22:33.272,-1.00342,-0.01172,-0.01611;
18:22:33.282,-1.00732,-0.00977,-0.02026;
18:22:33.292,-1.01147,-0.00830,-0.02026;
18:22:33.302,-1.00854,-0.01001,-0.02710;
18:22:33.312,-0.99902,-0.01465,-0.03223;
18:22:33.322,-0.99243,-0.01782,-0.02881;
18:22:33.332,-0.99512,-0.01270,-0.02905;
18:22:33.342,-1.00293,-0.00806,-0.02441;
18:22:33.352,-1.00977,-0.00757,-0.02173;
18:22:33.362,-1.01245,-0.01318,-0.02197;
18:22:33.372,-1.00635,-0.00903,-0.02246;
18:22:33.382,-1.00195,-0.00854,-0.03003;
18:22:33.392,-1.00049,-0.01099,-0.02808;
18:22:33.402,-1.00146,0.00171,-0.02393;
18:22:33.412,-1.00708,0.00195,-0.02197;
18:22:33.422,-1.01343,-0.00098,-0.01685;
18:22:33.432,-1.01465,0.00000,-0.02124;
18:22:33.442,-1.00757,-0.00439,-0.02808;
18:22:33.452,-1.00293,-0.00757,-0.02856;
18:22:33.462,-1.00195,-0.00806,-0.03149;
18:22:33.472,-1.00464,-0.00659,-0.03613;
18:22:33.482,-1.00562,-0.00586,-0.04224;
18:22:33.492,-1.00610,-0.00244,-0.04541;
18:22:33.502,-1.00659,0.00391,-0.04102;
18:22:33.512,-1.00464,0.00366,-0.03638;
18:22:33.522,-1.00220,0.00293,-0.03564;
18:22:33.532,-1.00952,0.01221,-0.03149;
18:22:33.542,-1.01025,0.00903,-0.02539;
18:22:33.552,-1.00098,0.00610,-0.03906;
18:22:33.562,-1.00269,0.00879,-0.03540;
18:22:33.572,-1.00781,0.00781,-0.03174;
18:22:33.582,-1.01099,0.01343,-0.03149;
18:22:33.592,-1.00928,0.01782,-0.03271;
18:22:33.602,-1.00635,0.02246,-0.03271;
18:22:33.612,-1.00464,0.01929,-0.03174;
18:22:33.622,-1.00562,0.01563,-0.02490;
18:22:33.632,-1.00757,0.01270,-0.02588;
18:22:33.642,-1.00879,0.00903,-0.02808;
18:22:33.652,-1.00464,0.00806,-0.03369;
18:22:33.662,-0.99829,0.00269,-0.04199;
18:22:33.672,-1.00000,0.00342,-0.03247;
18:22:33.682,-1.00781,0.00903,-0.02563;
18:22:33.692,-1.00806,0.00317,-0.02466;
18:22:33.702,-1.00439,-0.00464,-0.02734;
18:22:33.712,-1.00244,-0.00952,-0.02979;
18:22:33.722,-1.00049,-0.00708,-0.02783;
18:22:33.732,-1.00488,0.00146,-0.02588;
18:22:33.742,-1.00684,0.00049,-0.02710;
18:22:33.752,-1.00464,0.00537,-0.02759;
18:22:33.762,-1.00513,0.01001,-0.02905;
18:22:33.772,-1.00391,0.00049,-0.03149;
18:22:33.782,-1.00586,0.00488,-0.02979;
18:22:33.792,-1.00464,0.00610,-0.02905;
18:22:33.802,-1.00317,0.00171,-0.02783;
18:22:33.812,-1.00269,0.00879,-0.03271;
18:22:33.822,-0.99951,0.01367,-0.03955;
18:22:33.832,-0.99731,0.01392,-0.03955;
18:22:33.842,-0.99658,0.01050,-0.03320;
18:22:33.852,-1.00244,0.01538,-0.02197;
18:22:33.862,-1.00952,0.01733,-0.01831;
18:22:33.872,-1.00977,0.01636,-0.02344;
18:22:33.882,-1.01611,0.00879,-0.02319;
18:22:33.892,-1.01489,0.00171,-0.02319;
18:22:33.902,-1.00659,0.00269,-0.02905;
18:22:33.912,-1.00659,-0.00024,-0.02881;
18:22:33.922,-1.00610,0.00024,-0.02271;
18:22:33.932,-1.00586,0.00146,-0.01611;
18:22:33.942,-1.00952,0.00537,-0.01392;
18:22:33.952,-1.00928,0.01196,-0.01294;
18:22:33.962,-1.00830,0.00977,-0.01025;
18:22:33.972,-1.00928,0.00757,-0.00952;
18:22:33.982,-1.01074,0.00879,-0.01001;
18:22:33.992,-1.01099,0.01172,-0.00928;
18:22:34.002,-1.00781,0.01099,-0.01196;
18:22:34.012,-1.00684,0.01343,-0.01416;
18:22:34.022,-1.00659,0.01782,-0.01074;
18:22:34.032,-1.00586,0.01685,-0.01001;
18:22:34.042,-1.00415,0.01929,-0.01636;
18:22:34.052,-1.00415,0.01904,-0.02002;
18:22:34.062,-1.00220,0.01440,-0.01514;
18:22:34.072,-1.00610,0.01099,-0.00952;
18:22:34.082,-1.01074,0.01147,-0.00684;
18:22:34.092,-1.01074,0.01392,-0.00342;
18:22:34.102,-1.00903,0.01636,-0.00537;
18:22:34.112,-1.00806,0.01880,-0.01294;
18:22:34.122,-1.00854,0.01733,-0.01172;
18:22:34.132,-1.00854,0.01392,-0.01172;
18:22:34.142,-1.00537,0.01025,-0.01367;
18:22:34.152,-1.00146,0.00903,-0.01147;
18:22:34.162,-1.00122,0.01465,-0.01343;
18:22:34.172,-1.00146,0.01636,-0.00928;
18:22:34.182,-1.00415,0.01245,-0.00610;
18:22:34.192,-1.00659,0.00806,-0.00293;
18:22:34.202,-1.00708,0.00757,0.00146;
18:22:34.212,-1.00659,0.01001,0.00195;
18:22:34.222,-1.00586,0.01245,0.00000;
18:22:34.232,-1.00537,0.01416,0.00293;
18:22:34.242,-1.00317,0.01172,0.00171;
18:22:34.252,-1.00342,0.01416,0.00000;
18:22:34.262,-1.00269,0.01733,0.00659;
18:22:34.272,-1.00854,0.02832,0.01196;
18:22:34.282,-1.01294,0.02710,0.00903;
18:22:34.292,-1.00732,0.01685,0.00049;
18:22:34.302,-1.00342,0.00977,-0.00146;
18:22:34.312,-0.99780,0.00684,-0.00659;
18:22:34.322,-0.99512,0.00659,-0.00781;
18:22:34.332,-1.00000,0.00854,0.00049;
18:22:34.342,-1.00439,0.01025,0.00317;
18:22:34.352,-1.00635,0.01440,0.00537;
18:22:34.362,-1.00708,0.01270,0.00439;
18:22:34.372,-1.00562,0.01318,0.00195;
18:22:34.382,-1.00244,0.01196,0.00415;
18:22:34.392,-1.00708,0.00537,0.00488;
18:22:34.402,-1.01245,0.00854,0.00659;
18:22:34.412,-1.01099,0.01514,0.00806;
18:22:34.422,-1.01221,0.01758,0.00439;
18:22:34.432,-1.01123,0.01978,-0.00146;
18:22:34.442,-1.00244,0.01660,-0.00220;
18:22:34.452,-0.99854,0.00879,-0.00244;
18:22:34.462,-0.99878,0.00195,-0.00269;
18:22:34.472,-1.00098,0.01001,-0.00098;
18:22:34.482,-1.00757,0.01367,0.00000;
18:22:34.492,-1.00903,0.01538,0.00244;
18:22:34.502,-1.00708,0.01660,0.00220;
18:22:34.512,-1.00464,0.01367,-0.00024;
18:22:34.522,-1.00244,0.01392,0.00024;
18:22:34.532,-1.00391,0.01587,-0.00195;
18:22:34.542,-1.00977,0.02026,-0.00269;
18:22:34.552,-1.00879,0.01807,0.00293;
18:22:34.562,-1.00708,0.01880,0.00049;
18:22:34.572,-1.00806,0.02075,-0.00244;
18:22:34.582,-1.00659,0.02466,-0.01050;
18:22:34.592,-1.00464,0.02246,-0.02344;
18:22:34.602,-1.00195,0.02148,-0.02710;
18:22:34.612,-1.00195,0.02466,-0.02490;
18:22:34.622,-1.00293,0.02100,-0.01831;
18:22:34.632,-1.00757,0.01343,-0.01807;
18:22:34.642,-1.00879,0.01807,-0.01709;
18:22:34.652,-1.00757,0.02222,-0.01904;
18:22:34.662,-1.00879,0.02075,-0.01904;
18:22:34.672,-1.00757,0.02490,-0.02002;
18:22:34.682,-1.00708,0.02856,-0.02295;
18:22:34.692,-1.00391,0.02710,-0.02026;
18:22:34.702,-1.00586,0.02295,-0.01587;
18:22:34.712,-1.01025,0.02075,-0.01392;
18:22:34.722,-1.01025,0.02466,-0.01831;
18:22:34.732,-1.00732,0.02881,-0.02490;
18:22:34.742,-1.00171,0.03247,-0.02344;
18:22:34.752,-1.00366,0.04199,-0.01880;
18:22:34.762,-1.01123,0.04736,-0.02051;
18:22:34.772,-1.01611,0.04688,-0.02637;
18:22:34.782,-1.01636,0.04077,-0.03271;
18:22:34.792,-1.00806,0.03613,-0.03320;
18:22:34.802,-1.00269,0.03442,-0.03442;
18:22:34.812,-1.00171,0.03540,-0.03857;
18:22:34.822,-0.99976,0.04028,-0.04150;
18:22:34.832,-0.99976,0.04028,-0.04248;
18:22:34.842,-1.00244,0.03271,-0.03540;
18:22:34.852,-1.00415,0.03247,-0.03101;
18:22:34.862,-1.00586,0.04150,-0.03174;
18:22:34.872,-1.00781,0.04370,-0.02563;
18:22:34.882,-1.00781,0.04248,-0.03027;
18:22:34.892,-1.00806,0.03735,-0.03296;
18:22:34.902,-1.00317,0.02881,-0.03003;
18:22:34.912,-0.99951,0.02515,-0.03076;
18:22:34.922,-1.00244,0.02563,-0.02686;
18:22:34.932,-1.00635,0.02783,-0.02246;
18:22:34.942,-1.00732,0.02808,-0.02563;
18:22:34.952,-1.00806,0.02637,-0.02637;
18:22:34.962,-1.00464,0.02710,-0.02466;
18:22:34.972,-1.00317,0.02441,-0.02319;
18:22:34.982,-1.00317,0.02734,-0.02515;
18:22:34.992,-1.00269,0.02759,-0.02222;
18:22:35.002,-1.00903,0.03516,-0.03613;
18:22:35.012,-1.00122,0.02661,-0.03271;
18:22:35.022,-1.00269,0.01880,-0.02612;
18:22:35.032,-1.00513,0.03613,-0.03662;
18:22:35.042,-0.99683,0.03394,-0.03589;
18:22:35.052,-1.00049,0.03613,-0.03027;
18:22:35.062,-1.00684,0.03906,-0.02197;
18:22:35.072,-1.01123,0.03613,-0.01978;
18:22:35.082,-1.00952,0.03662,-0.02075;
18:22:35.092,-1.01245,0.03882,-0.02173;
18:22:35.102,-1.01343,0.03906,-0.02441;
18:22:35.112,-1.00854,0.03467,-0.02710;
18:22:35.122,-1.00903,0.02832,-0.02759;
18:22:35.132,-1.00635,0.03662,-0.02808;
18:22:35.142,-1.00684,0.03662,-0.02515;
18:22:35.152,-1.00781,0.03418,-0.01831;
18:22:35.162,-1.00757,0.03516,-0.01660;
18:22:35.172,-1.00708,0.03271,-0.02075;
18:22:35.182,-1.00757,0.03296,-0.01636;
18:22:35.192,-1.00806,0.03394,-0.01636;
18:22:35.202,-1.00732,0.03589,-0.01855;
18:22:35.212,-1.00659,0.03833,-0.01904;
18:22:35.222,-1.00488,0.03809,-0.02124;
18:22:35.232,-1.00171,0.03735,-0.02295;
18:22:35.242,-0.99927,0.03564,-0.02051;
18:22:35.252,-1.00220,0.03540,-0.02002;
18:22:35.262,-1.00537,0.03052,-0.01782;
18:22:35.272,-1.00635,0.02930,-0.00903;
18:22:35.282,-1.00610,0.03467,-0.01636;
18:22:35.292,-1.00488,0.04712,-0.02319;
18:22:35.302,-1.00464,0.04810,-0.01929;
18:22:35.312,-1.00513,0.04175,-0.01733;
18:22:35.322,-1.00635,0.03955,-0.01733;
18:22:35.332,-1.00757,0.03564,-0.02319;
18:22:35.342,-1.00708,0.03564,-0.02783;
18:22:35.352,-1.00610,0.03516,-0.02930;
18:22:35.362,-1.00513,0.03418,-0.03247;
18:22:35.372,-1.00220,0.03174,-0.03125;
18:22:35.382,-1.00049,0.03003,-0.02393;
18:22:35.392,-1.00391,0.02246,-0.01929;
18:22:35.402,-1.00122,0.01904,-0.01855;
18:22:35.412,-0.99683,0.01733,-0.01880;
18:22:35.422,-0.99976,0.01489,-0.01318;
18:22:35.432,-1.00342,0.02490,-0.01270;
18:22:35.442,-1.00342,0.02612,-0.01196;
18:22:35.452,-1.00488,0.03125,-0.00513;
18:22:35.462,-1.00879,0.03491,-0.00146;
18:22:35.472,-1.00244,0.04224,-0.02197;
18:22:35.482,-1.00464,0.04395,-0.02051;
18:22:35.492,-1.00610,0.03442,-0.01489;
18:22:35.502,-1.00562,0.03003,-0.01025;
18:22:35.512,-1.00659,0.02783,-0.00903;
18:22:35.522,-1.00464,0.02686,-0.00977;
18:22:35.532,-1.00439,0.02148,-0.01196;
18:22:35.542,-1.00488,0.02271,-0.01025;
18:22:35.552,-1.00513,0.02905,-0.00806;
18:22:35.562,-1.00415,0.02393,-0.00903;
18:22:35.572,-1.00269,0.02515,-0.00610;
18:22:35.582,-1.00513,0.03223,-0.00464;
18:22:35.592,-1.00659,0.03125,-0.00732;
18:22:35.602,-1.00732,0.02808,-0.00269;
18:22:35.612,-1.00806,0.03345,0.00000;
18:22:35.622,-1.00879,0.03760,-0.00439;
18:22:35.632,-1.01001,0.03638,-0.00854;
18:22:35.642,-1.01074,0.03955,-0.00928;
18:22:35.652,-1.00513,0.03857,-0.01123;
18:22:35.662,-1.00024,0.03052,-0.01563;
18:22:35.672,-0.99414,0.02295,-0.01709;
18:22:35.682,-1.00903,0.03784,-0.00049;
18:22:35.692,-1.01416,0.03784,-0.01489;
18:22:35.702,-0.99805,0.02759,-0.01685;
18:22:35.712,-1.01147,0.03223,-0.01318;
18:22:35.722,-1.01221,0.03271,-0.02319;
18:22:35.732,-1.00732,0.03882,-0.02734;
18:22:35.742,-1.00562,0.03687,-0.02759;
18:22:35.752,-1.00757,0.03784,-0.02368;
18:22:35.762,-1.00806,0.04297,-0.03271;
18:22:35.772,-1.00562,0.04956,-0.03857;
18:22:35.782,-1.00781,0.04639,-0.02881;
18:22:35.792,-1.00806,0.04541,-0.02905;
18:22:35.802,-1.00562,0.04370,-0.03540;
18:22:35.812,-1.00610,0.03931,-0.03516;
18:22:35.822,-1.00488,0.04004,-0.03809;
18:22:35.832,-1.00269,0.04199,-0.04272;
18:22:35.842,-1.00122,0.03906,-0.03979;
18:22:35.852,-0.99585,0.03760,-0.03613;
18:22:35.862,-0.99902,0.03613,-0.02954;
18:22:35.872,-1.00439,0.03271,-0.02295;
18:22:35.882,-1.00684,0.03931,-0.02197;
18:22:35.892,-1.01123,0.04663,-0.02393;
18:22:35.902,-1.01074,0.04858,-0.02710;
18:22:35.912,-1.01001,0.04248,-0.02734;
18:22:35.922,-1.00781,0.03979,-0.03467;
18:22:35.932,-1.00293,0.04126,-0.04028;
18:22:35.942,-1.00366,0.03906,-0.03589;
18:22:35.952,-1.00610,0.02808,-0.03101;
18:22:35.962,-1.00269,0.02808,-0.03003;
18:22:35.972,-1.00317,0.03027,-0.02808;
18:22:35.982,-1.00415,0.02637,-0.02734;
18:22:35.992,-1.00391,0.02539,-0.03467;
18:22:36.002,-1.00391,0.02271,-0.03198;
18:22:36.012,-1.00244,0.02124,-0.03149;
18:22:36.022,-1.00000,0.02539,-0.03589;
18:22:36.032,-1.00098,0.03125,-0.03027;
18:22:36.042,-1.00635,0.03442,-0.02661;
18:22:36.052,-1.00879,0.03687,-0.02612;
18:22:36.062,-1.00977,0.03247,-0.02075;
18:22:36.072,-1.01270,0.03076,-0.01929;
18:22:36.082,-1.00757,0.03027,-0.02588;
18:22:36.092,-1.00220,0.02393,-0.02710;
18:22:36.102,-0.99902,0.02319,-0.03052;
18:22:36.112,-0.99731,0.02710,-0.03003;
18:22:36.122,-1.00171,0.02612,-0.02930;
18:22:36.132,-1.00562,0.02783,-0.03198;
18:22:36.142,-1.00806,0.03467,-0.02539;
18:22:36.152,-1.00635,0.03076,-0.02856;
18:22:36.162,-0.99951,0.02905,-0.03076;
18:22:36.172,-0.99609,0.03174,-0.03320;
18:22:36.182,-1.00024,0.03198,-0.03101;
18:22:36.192,-1.00073,0.03394,-0.03345;
18:22:36.202,-0.99854,0.03394,-0.03418;
18:22:36.212,-1.00122,0.03833,-0.02686;
18:22:36.222,-1.00635,0.03784,-0.02271;
18:22:36.232,-1.00952,0.03589,-0.01855;
18:22:36.242,-1.00903,0.04224,-0.01831;
18:22:36.252,-1.01074,0.04053,-0.01099;
18:22:36.262,-1.01807,0.03857,-0.00244;
18:22:36.272,-1.01587,0.04395,-0.01343;
18:22:36.282,-1.01245,0.03540,-0.01929;
18:22:36.292,-1.01245,0.03345,-0.02173;
18:22:36.302,-1.00806,0.03223,-0.02368;
18:22:36.312,-1.00366,0.02588,-0.02002;
18:22:36.322,-1.00464,0.02319,-0.02173;
18:22:36.332,-1.00439,0.02393,-0.01904;
18:22:36.342,-1.00659,0.02759,-0.01855;
18:22:36.352,-1.01050,0.02759,-0.01709;
18:22:36.362,-1.00806,0.02808,-0.01758;
18:22:36.372,-1.00684,0.02930,-0.01123;
18:22:36.382,-1.00732,0.03442,-0.00830;
18:22:36.392,-1.00928,0.03516,-0.00928;
18:22:36.402,-1.00879,0.03662,-0.01074;
18:22:36.412,-1.00464,0.03369,-0.00781;
18:22:36.422,-1.00415,0.02734,0.00000;
18:22:36.432,-1.00659,0.03662,-0.01367;
18:22:36.442,-1.00635,0.04517,-0.01807;
18:22:36.452,-1.00562,0.03979,-0.01465;
18:22:36.462,-1.00610,0.04004,-0.02368;
18:22:36.472,-1.00415,0.03467,-0.01782;
18:22:36.482,-1.00293,0.03833,-0.01733;
18:22:36.492,-1.00415,0.03296,-0.01514;
18:22:36.502,-1.00073,0.02808,-0.01392;
18:22:36.512,-1.00293,0.02979,-0.01416;
18:22:36.522,-1.00610,0.02222,-0.00317;
18:22:36.532,-1.00562,0.02173,-0.00073;
18:22:36.542,-1.00195,0.02637,-0.00293;
18:22:36.552,-0.99854,0.03125,-0.00439;
18:22:36.562,-0.99805,0.03711,-0.00635;
18:22:36.572,-1.00391,0.03979,0.00049;
18:22:36.582,-1.01050,0.04224,0.00610;
18:22:36.592,-1.01318,0.03955,0.00928;
18:22:36.602,-1.01001,0.04175,0.00317;
18:22:36.612,-1.00293,0.04150,0.00122;
18:22:36.622,-1.00366,0.04004,0.00098;
18:22:36.632,-1.00684,0.04126,-0.00269;
18:22:36.642,-1.00684,0.04126,-0.00220;
18:22:36.652,-1.00659,0.04419,-0.00854;
18:22:36.662,-1.00464,0.04126,-0.00781;
18:22:36.672,-1.00537,0.03467,-0.00171;
18:22:36.682,-1.00708,0.02734,0.00391;
18:22:36.692,-1.00708,0.02563,0.00269;
18:22:36.702,-1.00464,0.02905,-0.00684;
18:22:36.712,-1.00317,0.02368,-0.00708;
18:22:36.722,-1.00366,0.02271,-0.00928;
18:22:36.732,-1.00513,0.02271,-0.00610;
18:22:36.742,-1.00635,0.02563,-0.00342;
18:22:36.752,-1.00586,0.03198,-0.00684;
18:22:36.762,-1.00635,0.03442,-0.00488;
18:22:36.772,-1.00757,0.03589,-0.00464;
18:22:36.782,-1.00952,0.03149,-0.00146;
18:22:36.792,-1.00684,0.02954,0.00171;
18:22:36.802,-1.00513,0.02856,-0.00610;
18:22:36.812,-1.00269,0.03027,-0.01270;
18:22:36.822,-1.00024,0.03149,-0.01050;
18:22:36.832,-1.00537,0.03174,-0.01611;
18:22:36.842,-1.00488,0.03540,-0.01929;
18:22:36.852,-1.00244,0.03394,-0.01782;
18:22:36.862,-1.00464,0.02539,-0.01440;
18:22:36.872,-1.00781,0.02319,-0.01099;
18:22:36.882,-1.00879,0.02490,-0.01050;
18:22:36.892,-1.00781,0.02808,-0.01099;
18:22:36.902,-1.00732,0.02808,-0.01709;
18:22:36.912,-1.00488,0.02686,-0.02783;
18:22:36.922,-1.00488,0.02832,-0.03174;
18:22:36.932,-1.00439,0.03101,-0.02173;
18:22:36.942,-1.00317,0.02759,-0.01709;
18:22:36.952,-1.00854,0.02417,-0.01709;
18:22:36.962,-1.01318,0.03589,-0.02295;
18:22:36.972,-1.00854,0.04102,-0.03345;
18:22:36.982,-1.00464,0.03662,-0.04053;
18:22:36.992,-1.00293,0.03540,-0.04541;
18:22:37.002,-1.00415,0.03564,-0.04517;
18:22:37.012,-1.00513,0.03735,-0.03979;
18:22:37.022,-1.00513,0.03687,-0.04077;
18:22:37.032,-1.00464,0.03052,-0.04224;
18:22:37.042,-1.00391,0.02979,-0.03906;
18:22:37.052,-1.00244,0.03247,-0.04565;
18:22:37.062,-0.99927,0.03320,-0.04736;
18:22:37.072,-1.00366,0.03198,-0.03833;
18:22:37.082,-1.01074,0.03418,-0.03125;
18:22:37.092,-1.01318,0.03638,-0.03003;
18:22:37.102,-1.01270,0.03589,-0.03711;
18:22:37.112,-1.00586,0.03076,-0.04517;
18:22:37.122,-1.00195,0.02710,-0.04639;
18:22:37.132,-1.00000,0.03052,-0.05054;
18:22:37.142,-1.00122,0.02612,-0.04736;
18:22:37.152,-1.00659,0.02246,-0.04321;
18:22:37.162,-1.00562,0.02881,-0.04688;
18:22:37.172,-1.00513,0.02783,-0.04370;
18:22:37.182,-1.00488,0.01831,-0.04297;
18:22:37.192,-1.00391,0.01929,-0.04883;
18:22:37.202,-1.00220,0.02783,-0.05249;
18:22:37.212,-0.99927,0.03101,-0.04639;
18:22:37.222,-1.00635,0.03223,-0.03613;
18:22:37.232,-1.00977,0.03882,-0.04175;
18:22:37.242,-1.00854,0.03149,-0.05420;
18:22:37.252,-0.99878,0.03491,-0.05469;
18:22:37.262,-0.99805,0.02954,-0.05737;
18:22:37.272,-0.99976,0.03003,-0.04932;
18:22:37.282,-1.01099,0.03223,-0.03833;
18:22:37.292,-1.01025,0.03369,-0.04297;
18:22:37.302,-1.00708,0.02979,-0.04248;
18:22:37.312,-1.00488,0.02686,-0.04175;
18:22:37.322,-1.00415,0.02539,-0.03979;
18:22:37.332,-1.00610,0.02734,-0.04932;
18:22:37.342,-1.00439,0.03198,-0.05005;
18:22:37.352,-1.00391,0.02393,-0.04980;
18:22:37.362,-1.00244,0.02295,-0.05249;
18:22:37.372,-1.00024,0.02026,-0.05151;
18:22:37.382,-1.00122,0.01636,-0.05078;
18:22:37.392,-0.99951,0.01367,-0.04614;
18:22:37.402,-0.99951,0.00781,-0.04834;
18:22:37.412,-0.99927,0.01221,-0.04883;
18:22:37.422,-0.99683,0.01758,-0.04810;
18:22:37.432,-0.99731,0.02344,-0.05054;
18:22:37.442,-0.99683,0.02100,-0.04565;
18:22:37.452,-0.99536,0.02026,-0.04346;
18:22:37.462,-0.99390,0.03149,-0.04517;
18:22:37.472,-0.99561,0.03809,-0.04468;
18:22:37.482,-1.00171,0.04053,-0.04150;
18:22:37.492,-1.01074,0.04565,-0.03198;
18:22:37.502,-1.02051,0.03833,-0.02393;
18:22:37.512,-1.02124,0.04004,-0.03101;
18:22:37.522,-1.01953,0.04053,-0.03735;
18:22:37.532,-1.01318,0.03662,-0.03540;
18:22:37.542,-1.00610,0.03833,-0.03833;
18:22:37.552,-1.00684,0.02930,-0.03638;
18:22:37.562,-1.00708,0.02197,-0.03149;
18:22:37.572,-1.00610,0.02173,-0.03467;
18:22:37.582,-1.00513,0.02393,-0.03491;
18:22:37.592,-1.00342,0.02246,-0.03638;
18:22:37.602,-1.00073,0.02563,-0.03979;
18:22:37.612,-1.00049,0.03857,-0.04419;
18:22:37.622,-1.00317,0.04199,-0.03979;
18:22:37.632,-1.00562,0.03149,-0.03076;
18:22:37.642,-1.00635,0.02393,-0.02051;
18:22:37.652,-1.00610,0.01709,-0.01392;
18:22:37.662,-1.00342,0.01611,-0.01514;
18:22:37.672,-1.00317,0.02148,-0.01611;
18:22:37.682,-1.00171,0.03052,-0.02002;
18:22:37.692,-1.00000,0.03735,-0.01953;
18:22:37.702,-1.00537,0.03906,-0.01465;
18:22:37.712,-1.01025,0.04272,-0.01050;
18:22:37.722,-1.01343,0.04272,-0.00635;
18:22:37.732,-1.01172,0.03931,-0.00806;
18:22:37.742,-1.00708,0.03516,-0.00806;
18:22:37.752,-1.00659,0.04297,-0.01489;
18:22:37.762,-1.00586,0.05005,-0.02100;
18:22:37.772,-1.00732,0.04150,-0.02515;
18:22:37.782,-1.00391,0.04102,-0.03394;
18:22:37.792,-0.99976,0.03442,-0.02905;
18:22:37.802,-1.00195,0.03491,-0.02759;
18:22:37.812,-1.00269,0.03955,-0.02441;
18:22:37.822,-1.00269,0.03442,-0.02026;
18:22:37.832,-1.00488,0.03369,-0.01538;
18:22:37.842,-1.00439,0.04028,-0.01074;
18:22:37.852,-1.00488,0.04834,-0.01025;
18:22:37.862,-1.00879,0.04688,-0.00659;
18:22:37.872,-1.00732,0.04517,-0.00464;
18:22:37.882,-1.00537,0.03906,-0.00049;
18:22:37.892,-1.00562,0.04102,0.00171;
18:22:37.902,-1.00903,0.04956,0.00195;
18:22:37.912,-1.01025,0.04858,0.00122;
18:22:37.922,-1.00903,0.04590,-0.00171;
18:22:37.932,-1.00684,0.04370,-0.00488;
18:22:37.942,-1.00488,0.03687,-0.00732;
18:22:37.952,-1.00562,0.03687,-0.00488;
18:22:37.962,-1.00684,0.03979,-0.00952;
18:22:37.972,-1.00928,0.03491,-0.00903;
18:22:37.982,-1.00757,0.03125,-0.00830;
18:22:37.992,-1.00586,0.02930,-0.00781;
18:22:38.002,-1.00439,0.03003,-0.00854;
18:22:38.012,-1.00415,0.03247,-0.00537;
18:22:38.022,-1.00220,0.03271,-0.00928;
18:22:38.032,-1.00488,0.04126,-0.00610;
18:22:38.042,-1.00757,0.04614,-0.00928;
18:22:38.052,-1.00073,0.05249,-0.01587;
18:22:38.062,-0.99927,0.04761,-0.00952;
18:22:38.072,-1.00391,0.05444,-0.01025;
18:22:38.082,-1.01147,0.06079,-0.00659;
18:22:38.092,-1.01367,0.05884,-0.00464;
18:22:38.102,-1.00928,0.05078,-0.00732;
18:22:38.112,-1.00366,0.04712,-0.00708;
18:22:38.122,-1.00342,0.04565,-0.00684;
18:22:38.132,-1.00415,0.04980,-0.00928;
18:22:38.142,-1.00586,0.05078,-0.01538;
18:22:38.152,-1.00562,0.05054,-0.01929;
18:22:38.162,-1.00537,0.05127,-0.01855;
18:22:38.172,-1.00586,0.04761,-0.01440;
18:22:38.182,-1.00415,0.05054,-0.01611;
18:22:38.192,-1.00195,0.05151,-0.01538;
18:22:38.202,-1.00537,0.04834,-0.00806;
18:22:38.212,-1.00977,0.04517,-0.00903;
18:22:38.222,-1.00830,0.05688,-0.01587;
18:22:38.232,-1.00635,0.05713,-0.01685;
18:22:38.242,-1.00439,0.04907,-0.01782;
18:22:38.252,-1.00659,0.05103,-0.01855;
18:22:38.262,-1.00708,0.04590,-0.01221;
18:22:38.272,-1.00513,0.04614,-0.01172;
18:22:38.282,-1.00391,0.04102,-0.00879;
18:22:38.292,-1.00586,0.04443,-0.00903;
18:22:38.302,-1.00537,0.05615,-0.01367;
18:22:38.312,-1.00391,0.05005,-0.01880;
18:22:38.322,-1.00439,0.04932,-0.01831;
18:22:38.332,-1.00439,0.04688,-0.00708;
18:22:38.342,-1.00513,0.03979,-0.00391;
18:22:38.352,-1.00049,0.04932,-0.00903;
18:22:38.362,-0.99976,0.05591,-0.01196;
18:22:38.372,-1.00708,0.04736,-0.01245;
18:22:38.382,-1.01245,0.04712,-0.01709;
18:22:38.392,-1.00830,0.04785,-0.01416;
18:22:38.402,-1.00879,0.03589,-0.01147;
18:22:38.412,-1.00317,0.03296,-0.01636;
18:22:38.422,-0.99707,0.03076,-0.01489;
18:22:38.432,-0.99463,0.02808,-0.01465;
18:22:38.442,-0.98926,0.02783,-0.01221;
18:22:38.452,-0.99414,0.03540,-0.00757;
18:22:38.462,-1.00171,0.06567,-0.00513;
18:22:38.472,-1.02051,0.08374,-0.00317;
18:22:38.482,-1.02637,0.07373,-0.00562;
18:22:38.492,-1.01855,0.06152,-0.01270;
18:22:38.502,-1.01147,0.04810,-0.01733;
18:22:38.512,-0.99780,0.04590,-0.02417;
18:22:38.522,-0.99316,0.04883,-0.03467;
18:22:38.532,-0.99658,0.04492,-0.03467;
18:22:38.542,-0.99976,0.04565,-0.03613;
18:22:38.552,-1.00049,0.05127,-0.03491;
18:22:38.562,-1.00562,0.05420,-0.03198;
18:22:38.572,-1.00562,0.06030,-0.02734;
18:22:38.582,-1.00806,0.05908,-0.02271;
18:22:38.592,-1.01367,0.05371,-0.02075;
18:22:38.602,-1.01172,0.05615,-0.02271;
18:22:38.612,-1.01172,0.04834,-0.02563;
18:22:38.622,-1.01172,0.04688,-0.02417;
18:22:38.632,-1.01050,0.05591,-0.02417;
18:22:38.642,-1.00732,0.05493,-0.01929;
18:22:38.652,-1.00757,0.04761,-0.02319;
18:22:38.662,-1.01050,0.04468,-0.03101;
18:22:38.672,-1.01025,0.04346,-0.03271;
18:22:38.682,-1.00488,0.03833,-0.03320;
18:22:38.692,-0.99341,0.03491,-0.04297;
18:22:38.702,-0.98755,0.04517,-0.04834;
18:22:38.712,-0.99438,0.05396,-0.04712;
18:22:38.722,-1.00977,0.05249,-0.05078;
18:22:38.732,-1.01538,0.04980,-0.05005;
18:22:38.742,-1.01025,0.03564,-0.04980;
18:22:38.752,-1.00635,0.02466,-0.04297;
18:22:38.762,-1.00439,0.02515,-0.03711;
18:22:38.772,-1.00488,0.02368,-0.04028;
18:22:38.782,-1.00391,0.01782,-0.04883;
18:22:38.792,-0.99976,0.02588,-0.05176;
18:22:38.802,-1.01245,0.02368,-0.05298;
18:22:38.812,-1.00244,0.00903,-0.05322;
18:22:38.822,-0.99512,-0.00220,-0.05835;
18:22:38.832,-0.99976,0.00513,-0.06055;
18:22:38.842,-0.99951,0.00928,-0.06445;
18:22:38.852,-0.99707,0.00806,-0.06689;
18:22:38.862,-0.99341,0.01147,-0.06201;
18:22:38.872,-0.99463,0.01270,-0.05200;
18:22:38.882,-1.00146,0.02246,-0.04517;
18:22:38.892,-1.00586,0.03003,-0.04834;
18:22:38.902,-1.01318,0.02515,-0.04663;
18:22:38.912,-1.01563,0.03198,-0.05029;
18:22:38.922,-1.01172,0.02246,-0.05591;
18:22:38.932,-1.00952,0.01758,-0.05762;
18:22:38.942,-1.00806,0.02417,-0.06128;
18:22:38.952,-1.00952,0.01953,-0.05713;
18:22:38.962,-1.01147,0.01758,-0.04907;
18:22:38.972,-1.01050,0.00928,-0.04858;
18:22:38.982,-1.00928,0.00537,-0.04883;
18:22:38.992,-1.00635,0.00732,-0.04980;
18:22:39.002,-1.00366,0.00757,-0.05322;
18:22:39.012,-1.00024,0.00732,-0.05811;
18:22:39.022,-0.99268,0.00244,-0.06812;
18:22:39.032,-0.98438,-0.00464,-0.07202;
18:22:39.042,-0.98193,-0.00928,-0.06592;
18:22:39.052,-0.98022,-0.01025,-0.05811;
18:22:39.062,-0.98682,-0.00952,-0.04785;
18:22:39.072,-1.00171,-0.00586,-0.04346;
18:22:39.082,-1.01270,-0.00195,-0.04126;
18:22:39.092,-1.01636,-0.00171,-0.04150;
18:22:39.102,-1.01123,-0.00391,-0.04199;
18:22:39.112,-1.00659,-0.00610,-0.03906;
18:22:39.122,-1.00269,-0.00024,-0.04102;
18:22:39.132,-0.99731,0.00342,-0.04492;
18:22:39.142,-1.00293,0.00146,-0.04053;
18:22:39.152,-1.00659,-0.00049,-0.04419;
18:22:39.162,-1.00708,0.00317,-0.04297;
18:22:39.172,-1.00781,0.00317,-0.04321;
18:22:39.182,-1.00366,0.00293,-0.05225;
18:22:39.192,-0.99829,0.00488,-0.05933;
18:22:39.202,-0.99561,0.00098,-0.06128;
18:22:39.212,-1.00269,0.00073,-0.04980;
18:22:39.222,-1.00952,-0.00293,-0.04468;
18:22:39.232,-1.00830,0.00635,-0.04346;
18:22:39.242,-1.00708,0.00684,-0.03931;
18:22:39.252,-1.00635,-0.00122,-0.03955;
18:22:39.262,-1.00610,0.00049,-0.04224;
18:22:39.272,-1.00562,0.00269,-0.03760;
18:22:39.282,-1.00488,0.00513,-0.03296;
18:22:39.292,-1.00269,0.00464,-0.03394;
18:22:39.302,-0.99854,0.00366,-0.03271;
18:22:39.312,-1.00708,0.00171,-0.02612;
18:22:39.322,-1.01465,0.00415,-0.02759;
18:22:39.332,-1.01587,0.00757,-0.02856;
18:22:39.342,-1.01440,0.00879,-0.03125;
18:22:39.352,-1.00879,0.01196,-0.03613;
18:22:39.362,-1.00171,0.01196,-0.03784;
18:22:39.372,-0.99731,0.00342,-0.03784;
18:22:39.382,-1.00391,-0.00366,-0.03442;
18:22:39.392,-1.00928,-0.00171,-0.03540;
18:22:39.402,-1.00854,-0.00073,-0.03955;
18:22:39.412,-1.00439,0.00513,-0.04102;
18:22:39.422,-1.00220,0.00952,-0.03833;
18:22:39.432,-1.00415,0.00659,-0.03564;
18:22:39.442,-1.00317,0.00317,-0.03955;
18:22:39.452,-1.00024,-0.00049,-0.03564;
18:22:39.462,-1.00195,0.00073,-0.03125;
18:22:39.472,-1.00195,0.00586,-0.03638;
18:22:39.482,-1.00488,0.01270,-0.03149;
18:22:39.492,-1.00806,0.01904,-0.02832;
18:22:39.502,-1.00586,0.01758,-0.02368;
18:22:39.512,-1.00269,0.00854,-0.02515;
18:22:39.522,-1.00024,0.01099,-0.02295;
18:22:39.532,-1.00513,0.01489,-0.02197;
18:22:39.542,-1.00830,0.02075,-0.02686;
18:22:39.552,-1.01050,0.02734,-0.02783;
18:22:39.562,-0.99780,0.01660,-0.02710;
18:22:39.572,-1.00342,0.02563,-0.02661;
18:22:39.582,-1.00513,0.02539,-0.02588;
18:22:39.592,-1.00171,0.03589,-0.03125;
18:22:39.602,-1.00610,0.02979,-0.01904;
18:22:39.612,-1.00610,0.02856,-0.01880;
18:22:39.622,-1.00464,0.03735,-0.02661;
18:22:39.632,-1.00659,0.04370,-0.02783;
18:22:39.642,-1.00659,0.04492,-0.02539;
18:22:39.652,-1.00708,0.04980,-0.02856;
18:22:39.662,-1.00830,0.04688,-0.02930;
18:22:39.672,-1.01123,0.05347,-0.01050;
18:22:39.682,-1.02124,0.05273,0.00098;
18:22:39.692,-1.02393,0.04199,-0.01123;
18:22:39.702,-1.00903,0.03345,-0.02759;
18:22:39.712,-0.99707,0.02686,-0.03125;
18:22:39.722,-0.99829,0.02710,-0.02563;
18:22:39.732,-1.00513,0.03516,-0.02905;
18:22:39.742,-1.01245,0.04883,-0.01392;
18:22:39.752,-1.02173,0.05298,-0.00098;
18:22:39.762,-1.01807,0.05737,-0.01587;
18:22:39.772,-1.01831,0.02368,-0.04419;
18:22:39.782,-1.01538,-0.00537,-0.06909;
18:22:39.792,-1.00122,0.00439,-0.05713;
18:22:39.802,-1.00537,0.00635,-0.02490;
18:22:39.812,-1.01514,-0.00195,-0.01294;
18:22:39.822,-1.01636,-0.00684,-0.04443;
18:22:39.832,-0.98486,-0.01929,-0.08105;
18:22:39.842,-0.95776,-0.03735,-0.08081;
18:22:39.852,-0.97388,-0.04590,-0.05981;
18:22:39.862,-1.07251,0.01880,0.04688;
18:22:39.872,-1.27686,-0.00098,0.05225;
18:22:39.882,-0.94897,-0.17578,-0.18799;
18:22:39.892,-0.62061,-0.00073,-0.27930;
18:22:39.902,-0.92358,0.05933,-0.15552;
18:22:39.912,-1.03125,-0.04883,-0.02856;
18:22:39.922,-1.05225,-0.00952,-0.03516;
18:22:39.932,-1.06616,-0.02271,-0.09546;
18:22:39.942,-1.00098,-0.08447,-0.03882;
18:22:39.952,-0.92529,-0.07202,-0.05200;
18:22:39.962,-0.89233,-0.03271,-0.04346;
18:22:39.972,-0.98730,-0.01636,-0.02490;
18:22:39.982,-1.04785,-0.00854,-0.03052;
18:22:39.992,-1.05664,-0.01025,-0.05225;
18:22:40.002,-1.04785,-0.02661,-0.05103;
18:22:40.012,-1.01636,-0.04956,-0.05273;
18:22:40.022,-0.98560,-0.04272,-0.06543;
18:22:40.032,-0.98804,-0.02173,-0.05078;
18:22:40.042,-1.01123,-0.00830,-0.04980;
18:22:40.052,-1.01147,0.00024,-0.07349;
18:22:40.062,-1.01221,-0.00708,-0.10181;
18:22:40.072,-0.99951,-0.02002,-0.12622;
18:22:40.082,-0.98413,-0.03394,-0.13232;
18:22:40.092,-0.97681,-0.04224,-0.12891;
18:22:40.102,-0.96704,-0.04468,-0.11963;
18:22:40.112,-0.95239,-0.06128,-0.12549;
18:22:40.122,-0.94189,-0.08252,-0.14429;
18:22:40.132,-0.93677,-0.09229,-0.16821;
18:22:40.142,-0.94336,-0.08008,-0.17505;
18:22:40.152,-0.95044,-0.07007,-0.16919;
18:22:40.162,-0.96997,-0.06738,-0.14331;
18:22:40.172,-1.00171,-0.03760,-0.10620;
18:22:40.182,-1.02637,-0.01245,-0.07202;
18:22:40.192,-1.04077,-0.02368,-0.02881;
18:22:40.202,-1.02637,-0.04810,-0.02466;
18:22:40.212,-1.00439,-0.05762,-0.05933;
18:22:40.222,-0.98804,-0.06616,-0.08228;
18:22:40.232,-1.01392,-0.05835,-0.02051;
18:22:40.242,-1.02026,-0.02979,-0.08032;
18:22:40.252,-0.99536,-0.02954,-0.08887;
18:22:40.262,-0.99463,-0.04297,-0.07715;
18:22:40.272,-0.99438,-0.02002,-0.10205;
18:22:40.282,-1.00366,-0.00928,-0.09790;
18:22:40.292,-1.01416,-0.01196,-0.08984;
18:22:40.302,-1.02441,-0.02222,-0.08691;
18:22:40.312,-1.01318,-0.02661,-0.08813;
18:22:40.322,-0.99756,-0.04077,-0.09131;
18:22:40.332,-0.99268,-0.04272,-0.09546;
18:22:40.342,-0.98999,-0.03833,-0.09595;
18:22:40.352,-0.98975,-0.04346,-0.08618;
18:22:40.362,-0.99756,-0.04395,-0.07910;
18:22:40.372,-1.00732,-0.04541,-0.07446;
18:22:40.382,-1.01196,-0.04004,-0.07373;
18:22:40.392,-1.01514,-0.03809,-0.06592;
18:22:40.402,-1.01294,-0.03979,-0.06665;
18:22:40.412,-1.01123,-0.03784,-0.08105;
18:22:40.422,-1.00537,-0.02930,-0.08423;
18:22:40.432,-1.00220,-0.02930,-0.08521;
18:22:40.442,-1.00220,-0.03589,-0.08716;
18:22:40.452,-0.99854,-0.02954,-0.08960;
18:22:40.462,-1.00024,-0.02563,-0.09033;
18:22:40.472,-1.00342,-0.02930,-0.08984;
18:22:40.482,-0.99829,-0.02930,-0.09106;
18:22:40.492,-0.99365,-0.03198,-0.09277;
18:22:40.502,-0.99561,-0.03857,-0.09277;
18:22:40.512,-0.99658,-0.03467,-0.09692;
18:22:40.522,-0.99902,-0.03418,-0.10010;
18:22:40.532,-1.00220,-0.02734,-0.09937;
18:22:40.542,-1.00732,-0.02808,-0.08960;
18:22:40.552,-1.00366,-0.03540,-0.08789;
18:22:40.562,-0.99561,-0.03735,-0.09058;
18:22:40.572,-0.99512,-0.04492,-0.08691;
18:22:40.582,-0.99878,-0.04639,-0.08398;
18:22:40.592,-1.00195,-0.04590,-0.08545;
18:22:40.602,-0.99805,-0.04736,-0.08521;
18:22:40.612,-0.99902,-0.04443,-0.07886;
18:22:40.622,-1.00391,-0.04590,-0.07764;
18:22:40.632,-1.00439,-0.04102,-0.08228;
18:22:40.642,-1.00610,-0.03467,-0.09009;
18:22:40.652,-1.00488,-0.03198,-0.09570;
18:22:40.662,-1.00488,-0.02759,-0.09253;
18:22:40.672,-1.00562,-0.02783,-0.08838;
18:22:40.682,-0.99829,-0.03564,-0.09131;
18:22:40.692,-0.99487,-0.03882,-0.09619;
18:22:40.702,-0.99805,-0.03101,-0.09912;
18:22:40.712,-1.00073,-0.03442,-0.10034;
18:22:40.722,-0.99951,-0.03418,-0.09863;
18:22:40.732,-1.00000,-0.03125,-0.09766;
18:22:40.742,-0.99634,-0.03149,-0.09448;
18:22:40.752,-0.99561,-0.03320,-0.09546;
18:22:40.762,-1.00073,-0.02808,-0.09692;
18:22:40.772,-1.00220,-0.03076,-0.09277;
18:22:40.782,-1.00586,-0.04175,-0.09180;
18:22:40.792,-1.00732,-0.03687,-0.09082;
18:22:40.802,-1.00366,-0.03711,-0.09058;
18:22:40.812,-0.99731,-0.04419,-0.08984;
18:22:40.822,-0.99341,-0.05005,-0.08984;
18:22:40.832,-0.99512,-0.05103,-0.08936;
18:22:40.842,-1.00098,-0.04736,-0.08643;
18:22:40.852,-1.00562,-0.05176,-0.07983;
18:22:40.862,-1.00513,-0.05200,-0.07544;
18:22:40.872,-1.00220,-0.05444,-0.08081;
18:22:40.882,-0.99487,-0.05688,-0.08276;
18:22:40.892,-0.99097,-0.05200,-0.08374;
18:22:40.902,-0.99902,-0.05371,-0.07959;
18:22:40.912,-1.00488,-0.05151,-0.06982;
18:22:40.922,-1.00586,-0.05103,-0.07422;
18:22:40.932,-0.99731,-0.05981,-0.08545;
18:22:40.942,-0.98755,-0.05151,-0.10498;
18:22:40.952,-0.99048,-0.02930,-0.11694;
18:22:40.962,-0.99805,-0.02271,-0.11084;
18:22:40.972,-1.00830,-0.02319,-0.10010;
18:22:40.982,-0.99976,-0.01587,-0.12085;
18:22:40.992,-0.99951,-0.02930,-0.09595;
18:22:41.002,-1.00220,-0.03369,-0.09521;
18:22:41.012,-1.00391,-0.03662,-0.09302;
18:22:41.022,-1.00122,-0.04224,-0.09204;
18:22:41.032,-0.99707,-0.04907,-0.09717;
18:22:41.042,-0.99414,-0.04736,-0.10254;
18:22:41.052,-0.99487,-0.04175,-0.10229;
18:22:41.062,-0.99829,-0.03613,-0.10376;
18:22:41.072,-1.00098,-0.03467,-0.10181;
18:22:41.082,-0.99927,-0.03271,-0.09912;
18:22:41.092,-1.00073,-0.03345,-0.09839;
18:22:41.102,-1.00488,-0.02808,-0.09839;
18:22:41.112,-1.00293,-0.02979,-0.10303;
18:22:41.122,-0.99878,-0.04248,-0.10083;
18:22:41.132,-0.99805,-0.03589,-0.09790;
18:22:41.142,-0.99805,-0.03882,-0.10034;
18:22:41.152,-0.99902,-0.04077,-0.09766;
18:22:41.162,-1.00293,-0.03418,-0.10083;
18:22:41.172,-1.00391,-0.04248,-0.09888;
18:22:41.182,-1.00171,-0.03638,-0.09717;
18:22:41.192,-1.00146,-0.03174,-0.09814;
18:22:41.202,-0.99951,-0.03955,-0.09351;
18:22:41.212,-0.99976,-0.03833,-0.09204;
18:22:41.222,-0.99854,-0.03760,-0.09741;
18:22:41.232,-0.99487,-0.04126,-0.09546;
18:22:41.242,-1.00024,-0.03955,-0.09497;
18:22:41.252,-1.00024,-0.04419,-0.09644;
18:22:41.262,-0.99731,-0.04028,-0.09839;
18:22:41.272,-0.99585,-0.04004,-0.10254;
18:22:41.282,-0.99951,-0.03979,-0.09766;
18:22:41.292,-1.00391,-0.03003,-0.10059;
18:22:41.302,-1.00244,-0.02466,-0.10547;
18:22:41.312,-1.00293,-0.02466,-0.11035;
18:22:41.322,-0.99585,-0.03906,-0.10083;
18:22:41.332,-0.99219,-0.04712,-0.09155;
18:22:41.342,-0.99585,-0.04858,-0.09473;
18:22:41.352,-0.99609,-0.04663,-0.09521;
18:22:41.362,-0.99951,-0.03979,-0.09644;
18:22:41.372,-1.00317,-0.03638,-0.09961;
18:22:41.382,-0.99951,-0.03101,-0.10547;
18:22:41.392,-0.99854,-0.03442,-0.09985;
18:22:41.402,-1.00171,-0.04614,-0.09253;
18:22:41.412,-0.99707,-0.04858,-0.08838;
18:22:41.422,-1.00000,-0.04907,-0.09229;
18:22:41.432,-1.00195,-0.04639,-0.09155;
18:22:41.442,-1.00171,-0.03833,-0.09326;
18:22:41.452,-1.00317,-0.03540,-0.09619;
18:22:41.462,-0.99634,-0.03613,-0.10034;
18:22:41.472,-0.99268,-0.04541,-0.10083;
18:22:41.482,-0.99658,-0.04980,-0.09595;
18:22:41.492,-0.99951,-0.04419,-0.10010;
18:22:41.502,-1.00000,-0.04004,-0.09839;
18:22:41.512,-1.00171,-0.03687,-0.09863;
18:22:41.522,-1.00171,-0.02979,-0.09814;
18:22:41.532,-0.99854,-0.03247,-0.10034;
18:22:41.542,-0.99341,-0.03491,-0.10229;
18:22:41.552,-0.99731,-0.03784,-0.09985;
18:22:41.562,-1.00000,-0.03931,-0.09595;
18:22:41.572,-0.99829,-0.03760,-0.09863;
18:22:41.582,-0.99683,-0.03809,-0.10083;
18:22:41.592,-0.99951,-0.03662,-0.09766;
18:22:41.602,-1.00098,-0.03345,-0.09619;
18:22:41.612,-0.99634,-0.03198,-0.09570;
18:22:41.622,-0.99463,-0.03809,-0.10205;
18:22:41.632,-0.99609,-0.04150,-0.10327;
18:22:41.642,-0.99927,-0.03638,-0.09937;
18:22:41.652,-1.00293,-0.03516,-0.09521;
18:22:41.662,-1.00464,-0.03345,-0.09619;
18:22:41.672,-0.99854,-0.03003,-0.10205;
18:22:41.682,-0.99536,-0.03809,-0.09717;
18:22:41.692,-0.99487,-0.04492,-0.09424;
18:22:41.702,-0.99561,-0.04272,-0.09595;
18:22:41.712,-1.00000,-0.04224,-0.09619;
18:22:41.722,-1.00391,-0.03442,-0.09937;
18:22:41.732,-1.00586,-0.02759,-0.09863;
18:22:41.742,-1.00488,-0.02661,-0.09912;
18:22:41.752,-0.99854,-0.03540,-0.10034;
18:22:41.762,-0.99951,-0.02417,-0.09839;
18:22:41.772,-0.99585,-0.02222,-0.10449;
18:22:41.782,-0.99585,-0.03296,-0.10327;
18:22:41.792,-1.00391,-0.03760,-0.09619;
18:22:41.802,-1.00366,-0.02930,-0.09644;
18:22:41.812,-1.00366,-0.03027,-0.09766;
18:22:41.822,-1.00293,-0.02930,-0.10254;
18:22:41.832,-0.99951,-0.02417,-0.10571;
18:22:41.842,-0.99951,-0.03003,-0.10278;
18:22:41.852,-0.99756,-0.02930,-0.10522;
18:22:41.862,-0.99658,-0.03027,-0.10107;
18:22:41.872,-0.99976,-0.03296,-0.10059;
18:22:41.882,-0.99951,-0.03076,-0.10229;
18:22:41.892,-0.99902,-0.03198,-0.09912;
18:22:41.902,-0.99780,-0.03516,-0.09570;
18:22:41.912,-0.99707,-0.03467,-0.09790;
18:22:41.922,-1.00000,-0.03320,-0.09912;
18:22:41.932,-1.00488,-0.02979,-0.09521;
18:22:41.942,-1.00366,-0.02783,-0.09888;
18:22:41.952,-0.99951,-0.02710,-0.10107;
18:22:41.962,-0.99658,-0.02612,-0.10303;
18:22:41.972,-0.99487,-0.03589,-0.10132;
18:22:41.982,-0.99561,-0.03784,-0.10034;
18:22:41.992,-0.99927,-0.03687,-0.10010;
18:22:42.002,-1.00439,-0.03296,-0.09229;
18:22:42.012,-1.00171,-0.01978,-0.10205;
18:22:42.022,-0.99927,-0.02319,-0.10791;
18:22:42.032,-0.99316,-0.02563,-0.10596;
18:22:42.042,-0.99292,-0.03125,-0.10596;
18:22:42.052,-0.99902,-0.03662,-0.09766;
18:22:42.062,-1.00269,-0.02734,-0.09595;
18:22:42.072,-1.00391,-0.02344,-0.10181;
18:22:42.082,-1.00146,-0.01758,-0.10400;
18:22:42.092,-0.99609,-0.02148,-0.10767;
18:22:42.102,-0.99414,-0.02856,-0.10498;
18:22:42.112,-0.99438,-0.03027,-0.10107;
18:22:42.122,-1.00024,-0.03491,-0.09399;
18:22:42.132,-1.00244,-0.02710,-0.09766;
18:22:42.142,-1.00366,-0.02661,-0.10107;
18:22:42.152,-1.00122,-0.02295,-0.10156;
18:22:42.162,-0.99756,-0.02466,-0.10547;
18:22:42.172,-0.99805,-0.02979,-0.10254;
18:22:42.182,-1.00098,-0.02905,-0.09985;
18:22:42.192,-1.00293,-0.02905,-0.10132;
18:22:42.202,-1.00269,-0.02197,-0.10425;
18:22:42.212,-1.00195,-0.02466,-0.10083;
18:22:42.222,-0.99927,-0.02710,-0.10376;
18:22:42.232,-0.99609,-0.02734,-0.10522;
18:22:42.242,-0.99634,-0.03052,-0.10010;
18:22:42.252,-1.00098,-0.03125,-0.09863;
18:22:42.262,-1.00195,-0.02637,-0.10254;
18:22:42.272,-1.00098,-0.02075,-0.10132;
18:22:42.282,-0.99976,-0.02319,-0.10229;
18:22:42.292,-1.00073,-0.02393,-0.10059;
18:22:42.302,-1.00024,-0.01953,-0.10083;
18:22:42.312,-0.99902,-0.02515,-0.10498;
18:22:42.322,-1.00073,-0.02490,-0.10303;
18:22:42.332,-1.00244,-0.02173,-0.10425;
18:22:42.342,-1.00049,-0.02319,-0.10107;
18:22:42.352,-0.99902,-0.02148,-0.09985;
18:22:42.362,-0.99780,-0.02197,-0.10083;
18:22:42.372,-0.99487,-0.02637,-0.10083;
18:22:42.382,-0.99609,-0.02563,-0.10254;
18:22:42.392,-0.99878,-0.02637,-0.10156;
18:22:42.402,-1.00098,-0.02441,-0.10083;
18:22:42.412,-1.00391,-0.02148,-0.09863;
18:22:42.422,-0.99976,-0.02368,-0.10205;
18:22:42.432,-0.99854,-0.02930,-0.10571;
18:22:42.442,-0.99829,-0.03052,-0.09961;
18:22:42.452,-1.00195,-0.02490,-0.09570;
18:22:42.462,-1.00415,-0.02417,-0.09937;
18:22:42.472,-1.00171,-0.02441,-0.10083;
18:22:42.482,-1.00073,-0.02051,-0.10156;
18:22:42.492,-0.99976,-0.02637,-0.09814;
18:22:42.502,-0.99854,-0.02368,-0.09985;
18:22:42.512,-0.99829,-0.02393,-0.10083;
18:22:42.522,-1.00293,-0.02563,-0.09888;
18:22:42.532,-0.99756,-0.02490,-0.10278;
18:22:42.542,-0.99561,-0.02344,-0.10571;
18:22:42.552,-0.99634,-0.02856,-0.10181;
18:22:42.562,-0.99927,-0.03345,-0.09619;
18:22:42.572,-1.00293,-0.01904,-0.09863;
18:22:42.582,-1.00806,-0.02173,-0.09912;
18:22:42.592,-1.00488,-0.02319,-0.09741;
18:22:42.602,-1.00024,-0.01978,-0.10010;
18:22:42.612,-0.99878,-0.02466,-0.09717;
18:22:42.622,-0.99561,-0.02222,-0.10205;
18:22:42.632,-1.00049,-0.02612,-0.10376;
18:22:42.642,-1.00146,-0.02051,-0.09961;
18:22:42.652,-1.00293,-0.01709,-0.10034;
18:22:42.662,-1.00317,-0.01685,-0.10107;
18:22:42.672,-1.00195,-0.01489,-0.10059;
18:22:42.682,-0.99902,-0.01367,-0.10400;
18:22:42.692,-0.99829,-0.02100,-0.10254;
18:22:42.702,-1.00146,-0.02515,-0.09741;
18:22:42.712,-1.00171,-0.02124,-0.09863;
18:22:42.722,-1.00415,-0.02075,-0.09863;
18:22:42.732,-1.00024,-0.01465,-0.10327;
18:22:42.742,-1.00000,-0.01611,-0.10669;
18:22:42.752,-1.00146,-0.01807,-0.10303;
18:22:42.762,-1.00220,-0.01929,-0.09839;
18:22:42.772,-1.00366,-0.01880,-0.09814;
18:22:42.782,-1.00171,-0.02026,-0.10010;
18:22:42.792,-1.00269,-0.02051,-0.09692;
18:22:42.802,-0.99927,-0.02051,-0.10059;
18:22:42.812,-0.99854,-0.02246,-0.10181;
18:22:42.822,-1.00049,-0.02051,-0.10181;
18:22:42.832,-0.99878,-0.02368,-0.10156;
18:22:42.842,-1.00000,-0.02100,-0.10205;
18:22:42.852,-0.99951,-0.01880,-0.10254;
18:22:42.862,-0.99609,-0.02734,-0.09888;
18:22:42.872,-0.99902,-0.02344,-0.09619;
18:22:42.882,-1.00391,-0.01904,-0.09766;
18:22:42.892,-1.00317,-0.01709,-0.10205;
18:22:42.902,-1.00049,-0.01782,-0.10156;
18:22:42.912,-0.99854,-0.02197,-0.10376;
18:22:42.922,-0.99756,-0.02197,-0.10327;
18:22:42.932,-0.99780,-0.02173,-0.10132;
18:22:42.942,-1.00024,-0.02173,-0.09961;
18:22:42.952,-1.00513,-0.01660,-0.09814;
18:22:42.962,-1.00366,-0.01807,-0.09937;
18:22:42.972,-1.00073,-0.02637,-0.09985;
18:22:42.982,-0.99780,-0.02588,-0.10278;
18:22:42.992,-0.99268,-0.02661,-0.10596;
18:22:43.002,-0.99902,-0.02393,-0.10132;
18:22:43.012,-1.00415,-0.02100,-0.09668;
18:22:43.022,-1.00464,-0.02173,-0.09668;
18:22:43.032,-1.00415,-0.01904,-0.10083;
18:22:43.042,-1.00122,-0.01636,-0.10181;
18:22:43.052,-0.99707,-0.02319,-0.10205;
18:22:43.062,-0.99854,-0.02417,-0.10303;
18:22:43.072,-1.00146,-0.02100,-0.10352;
18:22:43.082,-1.00391,-0.02344,-0.10620;
18:22:43.092,-1.00293,-0.01855,-0.10474;
18:22:43.102,-1.00122,-0.01904,-0.10254;
18:22:43.112,-1.00269,-0.02246,-0.10083;
18:22:43.122,-0.99683,-0.02246,-0.09985;
18:22:43.132,-0.99854,-0.02734,-0.10059;
18:22:43.142,-0.99854,-0.02148,-0.10327;
18:22:43.152,-1.00024,-0.01953,-0.10620;
18:22:43.162,-1.00098,-0.02441,-0.10181;
18:22:43.172,-0.99902,-0.02295,-0.10010;
18:22:43.182,-0.99976,-0.02393,-0.10205;
18:22:43.192,-0.99951,-0.02124,-0.09937;
18:22:43.202,-0.99878,-0.02222,-0.10181;
18:22:43.212,-0.99829,-0.02441,-0.10156;
18:22:43.222,-0.99976,-0.02271,-0.10059;
18:22:43.232,-1.00024,-0.02466,-0.09937;
18:22:43.242,-1.00098,-0.01758,-0.10181;
18:22:43.252,-0.99829,-0.01904,-0.10669;
18:22:43.262,-0.99951,-0.02441,-0.10010;
18:22:43.272,-1.00024,-0.02710,-0.09985;
18:22:43.282,-1.00122,-0.02124,-0.10449;
18:22:43.292,-0.99927,-0.02393,-0.10278;
18:22:43.302,-1.00269,-0.01904,-0.10034;
18:22:43.312,-1.00171,-0.02368,-0.10376;
