time,acc_x,acc_y,acc_z
19:16:05.606,0.55859,0.65356,-0.50732;
19:16:05.616,0.51538,0.64990,-0.40430;
19:16:05.626,0.47754,0.66675,-0.36572;
19:16:05.636,0.44092,0.66846,-0.36499;
19:16:05.646,0.45483,0.62769,-0.33521;
19:16:05.656,0.53345,0.61230,-0.32568;
19:16:05.666,0.63525,0.64111,-0.35596;
19:16:05.676,0.79565,0.69141,-0.48315;
19:16:05.686,0.83057,0.69165,-0.49805;
19:16:05.696,0.85645,0.65601,-0.48340;
19:16:05.706,0.84619,0.61743,-0.45190;
19:16:05.716,0.81812,0.60669,-0.38940;
19:16:05.726,0.80640,0.71509,-0.33130;
19:16:05.736,0.80298,0.84912,-0.29785;
19:16:05.746,0.78833,0.89038,-0.26489;
19:16:05.756,0.78540,0.86377,-0.25342;
19:16:05.766,0.77710,0.85254,-0.23584;
19:16:05.776,0.77026,0.82837,-0.18872;
19:16:05.786,0.78784,0.80005,-0.12964;
19:16:05.796,0.82568,0.72974,-0.07227;
19:16:05.806,0.84131,0.63647,0.01147;
19:16:05.816,0.82202,0.62476,0.08569;
19:16:05.826,0.79614,0.69653,0.11694;
19:16:05.836,0.77319,0.71582,0.12769;
19:16:05.846,0.73975,0.65479,0.13306;
19:16:05.856,0.63452,0.55566,0.23877;
19:16:05.866,0.56812,0.49902,0.27612;
19:16:05.876,0.60791,0.48071,0.23218;
19:16:05.886,0.65747,0.46094,0.05396;
19:16:05.896,0.67310,0.38306,-0.11450;
19:16:05.906,0.67090,0.28857,-0.13354;
19:16:05.916,0.75024,0.28516,-0.42700;
19:16:05.926,0.79224,0.14966,-0.78711;
19:16:05.936,0.80347,0.12891,-1.00293;
19:16:05.946,0.80444,0.44263,-1.14331;
19:16:05.956,0.72144,0.51245,-1.12305;
19:16:05.966,0.61426,0.64648,-1.06104;
19:16:05.976,0.54468,0.79932,-1.01147;
19:16:05.986,0.50757,0.86304,-0.97192;
19:16:05.996,0.47681,0.84985,-0.90503;
19:16:06.006,0.44946,0.80542,-0.82520;
19:16:06.016,0.43018,0.74634,-0.76196;
19:16:06.026,0.44141,0.66846,-0.71851;
19:16:06.036,0.47632,0.66431,-0.66943;
19:16:06.046,0.49219,0.70020,-0.58594;
19:16:06.056,0.49854,0.71680,-0.49146;
19:16:06.066,0.55957,0.70605,-0.38281;
19:16:06.076,0.60840,0.73169,-0.36841;
19:16:06.086,0.64453,0.78638,-0.37231;
19:16:06.096,0.67822,0.81689,-0.39575;
19:16:06.106,0.70117,0.82300,-0.41626;
19:16:06.116,0.72046,0.79517,-0.41943;
19:16:06.126,0.73389,0.76294,-0.38550;
19:16:06.136,0.71777,0.71704,-0.28906;
19:16:06.146,0.70654,0.68188,-0.25146;
19:16:06.156,0.77490,0.66357,-0.29688;
19:16:06.166,0.76563,0.65552,-0.33838;
19:16:06.176,0.74341,0.61279,-0.37866;
19:16:06.186,0.69507,0.58228,-0.40552;
19:16:06.196,0.61938,0.62012,-0.41479;
19:16:06.206,0.55859,0.72827,-0.44531;
19:16:06.216,0.53906,0.82837,-0.49512;
19:16:06.226,0.53711,0.82471,-0.53809;
19:16:06.236,0.54150,0.72998,-0.55908;
19:16:06.246,0.56396,0.59839,-0.55884;
19:16:06.256,0.58911,0.54590,-0.56982;
19:16:06.266,0.61670,0.60059,-0.60352;
19:16:06.276,0.64990,0.64966,-0.63965;
19:16:06.286,0.68262,0.60669,-0.71411;
19:16:06.296,0.68359,0.53809,-0.71484;
19:16:06.306,0.68213,0.50220,-0.68896;
19:16:06.316,0.69507,0.50806,-0.64282;
19:16:06.326,0.72632,0.54980,-0.60864;
19:16:06.336,0.75562,0.67163,-0.54907;
19:16:06.346,0.76196,0.74536,-0.47339;
19:16:06.356,0.76074,0.66602,-0.42969;
19:16:06.366,0.76636,0.61011,-0.41528;
19:16:06.376,0.73047,0.52539,-0.32861;
19:16:06.386,0.70972,0.39868,-0.27368;
19:16:06.396,0.71753,0.52734,-0.32715;
19:16:06.406,0.74976,0.59229,-0.40356;
19:16:06.416,0.76392,0.46143,-0.38428;
19:16:06.426,0.75610,0.50049,-0.36523;
19:16:06.436,0.74170,0.60083,-0.36011;
19:16:06.446,0.72119,0.72534,-0.26221;
19:16:06.456,0.69238,0.78857,-0.26025;
19:16:06.466,0.69312,0.72412,-0.31250;
19:16:06.476,0.70532,0.69312,-0.44214;
19:16:06.486,0.68970,0.69434,-0.48413;
19:16:06.496,0.65552,0.64111,-0.43921;
19:16:06.506,0.64380,0.60083,-0.41919;
19:16:06.516,0.64941,0.63672,-0.41162;
19:16:06.526,0.69849,0.60059,-0.43481;
19:16:06.536,0.69409,0.56055,-0.43140;
19:16:06.546,0.68921,0.57642,-0.39868;
19:16:06.556,0.69043,0.56787,-0.36719;
19:16:06.566,0.70142,0.54736,-0.38062;
19:16:06.576,0.71021,0.59058,-0.37061;
19:16:06.586,0.74194,0.64575,-0.37866;
19:16:06.596,0.77295,0.62085,-0.42773;
19:16:06.606,0.75781,0.61890,-0.42114;
19:16:06.616,0.70630,0.62207,-0.37231;
19:16:06.626,0.68652,0.60669,-0.36792;
19:16:06.636,0.69434,0.57739,-0.38208;
19:16:06.646,0.67627,0.53955,-0.36792;
19:16:06.656,0.66431,0.55981,-0.32422;
19:16:06.666,0.71265,0.67554,-0.34131;
19:16:06.676,0.71436,0.68677,-0.36133;
19:16:06.686,0.69580,0.69604,-0.39355;
19:16:06.696,0.67065,0.69971,-0.40234;
19:16:06.706,0.62695,0.71680,-0.37622;
19:16:06.716,0.57471,0.68262,-0.37964;
19:16:06.726,0.55615,0.72876,-0.41968;
19:16:06.736,0.61719,0.89160,-0.41382;
19:16:06.746,0.61523,0.93042,-0.41284;
19:16:06.756,0.62988,0.99536,-0.46021;
19:16:06.766,0.64258,1.13281,-0.51318;
19:16:06.776,0.62231,1.25049,-0.54907;
19:16:06.786,0.58057,1.28345,-0.51318;
19:16:06.796,0.55542,1.31421,-0.43628;
19:16:06.806,0.59155,1.33862,-0.38354;
19:16:06.816,0.64282,1.25244,-0.35132;
19:16:06.826,0.66431,0.88599,-0.43677;
19:16:06.836,0.65845,0.80688,-0.50122;
19:16:06.846,0.64722,0.69507,-0.52856;
19:16:06.856,0.61694,0.48975,-0.58838;
19:16:06.866,0.57422,0.39233,-0.63647;
19:16:06.876,0.54541,0.39941,-0.62793;
19:16:06.886,0.51318,0.39819,-0.56543;
19:16:06.896,0.49438,0.44092,-0.46704;
19:16:06.906,0.50781,0.56519,-0.39185;
19:16:06.916,0.52026,0.72559,-0.37012;
19:16:06.926,0.52441,0.76489,-0.42017;
19:16:06.936,0.50513,0.67383,-0.48730;
19:16:06.946,0.48608,0.48804,-0.51318;
19:16:06.956,0.50562,0.48877,-0.49878;
19:16:06.966,0.54419,0.50488,-0.50586;
19:16:06.976,0.56470,0.48853,-0.48340;
19:16:06.986,0.56274,0.42261,-0.45288;
19:16:06.996,0.55688,0.33716,-0.45093;
19:16:07.006,0.54883,0.26807,-0.45361;
19:16:07.016,0.55591,0.24731,-0.45435;
19:16:07.026,0.55054,0.31006,-0.49146;
19:16:07.036,0.53931,0.28174,-0.48340;
19:16:07.046,0.55103,0.33667,-0.47437;
19:16:07.056,0.57813,0.38159,-0.47876;
19:16:07.066,0.62476,0.36255,-0.51025;
19:16:07.076,0.67236,0.32568,-0.55420;
19:16:07.086,0.68164,0.34790,-0.60278;
19:16:07.096,0.64771,0.40479,-0.63428;
19:16:07.106,0.60840,0.42993,-0.68701;
19:16:07.116,0.60327,0.43994,-0.75024;
19:16:07.126,0.61694,0.44629,-0.77173;
19:16:07.136,0.66797,0.50366,-0.66064;
19:16:07.146,0.66016,0.61621,-0.62012;
19:16:07.156,0.62988,0.65991,-0.67578;
19:16:07.166,0.63037,0.67139,-0.77075;
19:16:07.176,0.64307,0.74658,-0.87549;
19:16:07.186,0.64966,0.79810,-0.95654;
19:16:07.196,0.64941,0.77979,-0.95239;
19:16:07.206,0.63770,0.76685,-0.90625;
19:16:07.216,0.59375,0.79858,-0.85278;
19:16:07.226,0.57568,0.80859,-0.84790;
19:16:07.236,0.59937,0.62646,-0.72095;
19:16:07.246,0.59912,0.52563,-0.47803;
19:16:07.256,0.62793,0.48926,-0.27686;
19:16:07.266,0.70972,0.60425,-0.24146;
19:16:07.276,0.74854,0.81250,-0.30469;
19:16:07.286,0.73315,0.91846,-0.36279;
19:16:07.296,0.71167,0.89526,-0.40356;
19:16:07.306,0.71289,0.73755,-0.35962;
19:16:07.316,0.72192,0.62939,-0.40063;
19:16:07.326,0.78296,0.48218,-0.63306;
19:16:07.336,0.80615,0.49707,-0.71851;
19:16:07.346,0.79858,0.44019,-0.78027;
19:16:07.356,0.81006,0.32788,-0.74365;
19:16:07.366,0.82275,0.39282,-0.65576;
19:16:07.376,0.78931,0.38428,-0.51953;
19:16:07.386,0.78442,0.19141,-0.41699;
19:16:07.396,0.83008,0.09131,-0.49585;
19:16:07.406,0.87378,0.20068,-0.62988;
19:16:07.416,0.89014,0.40356,-0.66846;
19:16:07.426,0.89429,0.12378,-0.63672;
19:16:07.436,0.88989,0.06958,-0.50586;
19:16:07.446,0.86157,0.16724,-0.60254;
19:16:07.456,0.86230,0.17236,-0.78027;
19:16:07.466,0.88428,0.39526,-0.70752;
19:16:07.476,0.84912,0.64746,-0.46411;
19:16:07.486,0.75415,0.75757,-0.31177;
19:16:07.496,0.65625,0.76660,-0.34473;
19:16:07.506,0.58105,0.70068,-0.42969;
19:16:07.516,0.54126,0.56982,-0.46899;
19:16:07.526,0.53711,0.48657,-0.49658;
19:16:07.536,0.55371,0.46289,-0.46362;
19:16:07.546,0.53516,0.56421,-0.40454;
19:16:07.556,0.50195,0.63037,-0.30420;
19:16:07.566,0.47437,0.61401,-0.25513;
19:16:07.576,0.45605,0.46094,-0.26270;
19:16:07.586,0.45435,0.31470,-0.26172;
19:16:07.596,0.46436,0.42139,-0.24780;
19:16:07.606,0.46387,0.81763,-0.07568;
19:16:07.616,0.41748,0.85303,0.05273;
19:16:07.626,0.39746,0.85107,0.10474;
19:16:07.636,0.37817,0.93237,0.14575;
19:16:07.646,0.35449,0.97925,0.19702;
19:16:07.656,0.30591,1.00977,0.26685;
19:16:07.666,0.27393,1.04199,0.36914;
19:16:07.676,0.26074,1.12280,0.44849;
19:16:07.686,0.20508,1.42188,0.46045;
19:16:07.696,0.19385,1.51147,0.45532;
19:16:07.706,0.18237,1.52271,0.43115;
19:16:07.716,0.15137,1.45068,0.42969;
19:16:07.726,0.11108,1.34937,0.41260;
19:16:07.736,0.08374,1.28833,0.38525;
19:16:07.746,0.07031,1.25439,0.34497;
19:16:07.756,0.08081,1.28564,0.26660;
19:16:07.766,0.09790,1.29956,0.22290;
19:16:07.776,0.11304,1.25146,0.22119;
19:16:07.786,0.11841,1.17969,0.21436;
19:16:07.796,0.10425,1.13013,0.18506;
19:16:07.806,0.10205,1.05493,0.13403;
19:16:07.816,0.12012,0.95581,0.20068;
19:16:07.826,0.12280,0.84302,0.22729;
19:16:07.836,0.10254,0.85059,0.17725;
19:16:07.846,0.14990,0.87012,0.10376;
19:16:07.856,0.15796,0.92017,0.08838;
19:16:07.866,0.15576,0.95801,0.08594;
19:16:07.876,0.15527,0.94873,0.09595;
19:16:07.886,0.15649,0.90625,0.11475;
19:16:07.896,0.16357,0.87061,0.13159;
19:16:07.906,0.17188,0.86035,0.14258;
19:16:07.916,0.18530,0.87646,0.15015;
19:16:07.926,0.19580,0.89941,0.15479;
19:16:07.936,0.18921,0.92480,0.14771;
19:16:07.946,0.18091,0.94116,0.14795;
19:16:07.956,0.18384,0.93042,0.16284;
19:16:07.966,0.19702,0.89136,0.17139;
19:16:07.976,0.19873,0.87451,0.18750;
19:16:07.986,0.18750,0.91504,0.25220;
19:16:07.996,0.18970,0.92603,0.26904;
19:16:08.006,0.19116,0.96045,0.26978;
19:16:08.016,0.18481,0.99023,0.29736;
19:16:08.026,0.16504,0.99951,0.34058;
19:16:08.036,0.14819,1.05249,0.36182;
19:16:08.046,0.13672,1.07227,0.38306;
19:16:08.056,0.12500,1.04663,0.39893;
19:16:08.066,0.09912,1.00659,0.45679;
19:16:08.076,0.10449,1.06104,0.47021;
19:16:08.086,0.10571,1.11987,0.47314;
19:16:08.096,0.11572,1.13257,0.47461;
19:16:08.106,0.12744,1.09277,0.45264;
19:16:08.116,0.13525,1.06323,0.40356;
19:16:08.126,0.13403,1.03467,0.35474;
19:16:08.136,0.14258,0.78247,0.39600;
19:16:08.146,0.14136,0.91382,0.45190;
19:16:08.156,0.11987,1.04126,0.47412;
19:16:08.166,0.11206,1.14014,0.46655;
19:16:08.176,0.13086,1.10547,0.40942;
19:16:08.186,0.14990,0.95752,0.30347;
19:16:08.196,0.16187,0.78076,0.23853;
19:16:08.206,0.17529,0.61914,0.18311;
19:16:08.216,0.17920,0.58838,0.16309;
19:16:08.226,0.17505,0.75635,0.19092;
19:16:08.236,0.16064,0.93140,0.24878;
19:16:08.246,0.15894,1.02417,0.32031;
19:16:08.256,0.16162,1.07275,0.25586;
19:16:08.266,0.16821,0.94067,0.18677;
19:16:08.276,0.18164,0.83594,0.14771;
19:16:08.286,0.18311,0.84424,0.11475;
19:16:08.296,0.16089,0.87769,0.14966;
19:16:08.306,0.16455,0.92065,0.21533;
19:16:08.316,0.18726,0.94019,0.24487;
19:16:08.326,0.19116,0.97461,0.25659;
19:16:08.336,0.18213,1.02539,0.25732;
19:16:08.346,0.15234,1.08081,0.22778;
19:16:08.356,0.15063,1.03589,0.18799;
19:16:08.366,0.15063,0.97217,0.15991;
19:16:08.376,0.15063,0.92383,0.15576;
19:16:08.386,0.15649,0.91919,0.15039;
19:16:08.396,0.15894,0.92847,0.15430;
19:16:08.406,0.14819,0.96143,0.19751;
19:16:08.416,0.13232,0.98560,0.25220;
19:16:08.426,0.14209,1.06812,0.22021;
19:16:08.436,0.14648,1.02002,0.13672;
19:16:08.446,0.16675,0.98853,0.07031;
19:16:08.456,0.17676,0.94849,0.06396;
19:16:08.466,0.17261,0.95508,0.10474;
19:16:08.476,0.17090,0.99829,0.14697;
19:16:08.486,0.17480,1.04907,0.18188;
19:16:08.496,0.18164,1.08545,0.19653;
19:16:08.506,0.17944,1.09790,0.19263;
19:16:08.516,0.17749,1.08911,0.17822;
19:16:08.526,0.18066,1.06079,0.16821;
19:16:08.536,0.18311,1.02002,0.15088;
19:16:08.546,0.17480,0.98560,0.16504;
19:16:08.556,0.16479,0.96899,0.19434;
19:16:08.566,0.16357,0.97095,0.21753;
19:16:08.576,0.17041,0.97168,0.23071;
19:16:08.586,0.17090,0.97583,0.20898;
19:16:08.596,0.16040,0.98975,0.18408;
19:16:08.606,0.15430,0.98560,0.16016;
19:16:08.616,0.14795,0.97339,0.14746;
19:16:08.626,0.14209,0.96069,0.15454;
19:16:08.636,0.14307,0.94482,0.15967;
19:16:08.646,0.14136,0.93994,0.15674;
19:16:08.656,0.13696,0.93994,0.16675;
19:16:08.666,0.13037,0.93848,0.17676;
19:16:08.676,0.12427,0.94629,0.17456;
19:16:08.686,0.12866,0.96704,0.15918;
19:16:08.696,0.13745,0.97168,0.13452;
19:16:08.706,0.14478,0.95703,0.11670;
19:16:08.716,0.15137,0.94775,0.11499;
19:16:08.726,0.15259,0.95044,0.12329;
19:16:08.736,0.15845,0.96460,0.11670;
19:16:08.746,0.16528,0.99414,0.12915;
19:16:08.756,0.15356,1.00439,0.12354;
19:16:08.766,0.14771,1.00269,0.11890;
19:16:08.776,0.14185,0.99902,0.10718;
19:16:08.786,0.13892,0.98926,0.10059;
19:16:08.796,0.14063,0.98022,0.10156;
19:16:08.806,0.14282,0.97900,0.11035;
19:16:08.816,0.14282,0.98901,0.11670;
19:16:08.826,0.14331,0.99707,0.12378;
19:16:08.836,0.14014,0.99976,0.13599;
19:16:08.846,0.14160,1.00830,0.13916;
19:16:08.856,0.14746,1.00903,0.13672;
19:16:08.866,0.15210,0.99463,0.12476;
19:16:08.876,0.15161,0.98657,0.10400;
19:16:08.886,0.15405,0.97827,0.09253;
19:16:08.896,0.16016,0.97656,0.08887;
19:16:08.906,0.15845,0.99536,0.08765;
19:16:08.916,0.15649,1.01343,0.10181;
19:16:08.926,0.16187,1.02588,0.12061;
19:16:08.936,0.16553,1.03247,0.12500;
19:16:08.946,0.16284,1.03174,0.12622;
19:16:08.956,0.16577,1.02271,0.12378;
19:16:08.966,0.17188,1.01685,0.11328;
19:16:08.976,0.17749,1.00659,0.10278;
19:16:08.986,0.18213,0.98999,0.08911;
19:16:08.996,0.18335,0.98438,0.08105;
19:16:09.006,0.17407,0.98706,0.07959;
19:16:09.016,0.16528,0.98950,0.08057;
19:16:09.026,0.16333,0.99268,0.09644;
19:16:09.036,0.15942,1.00073,0.11768;
19:16:09.046,0.15454,1.01807,0.13672;
19:16:09.056,0.15283,1.00732,0.11230;
19:16:09.066,0.16016,0.97119,0.08496;
19:16:09.076,0.15356,0.95825,0.09082;
19:16:09.086,0.14795,0.95703,0.10425;
19:16:09.096,0.14697,0.96216,0.11475;
19:16:09.106,0.14478,0.97119,0.12427;
19:16:09.116,0.14014,0.98584,0.12183;
19:16:09.126,0.14258,0.99634,0.11035;
19:16:09.136,0.14551,0.99854,0.09082;
19:16:09.146,0.14941,1.00244,0.06592;
19:16:09.156,0.15283,0.99585,0.06274;
19:16:09.166,0.15234,0.98535,0.06274;
19:16:09.176,0.15381,0.98389,0.06787;
19:16:09.186,0.15186,0.97729,0.08203;
19:16:09.196,0.14893,0.97314,0.09546;
19:16:09.206,0.14990,0.99121,0.09668;
19:16:09.216,0.15137,1.00415,0.09033;
19:16:09.226,0.15405,1.00146,0.08008;
19:16:09.236,0.15625,0.99878,0.06909;
19:16:09.246,0.16187,0.98608,0.06860;
19:16:09.256,0.16895,0.98242,0.06396;
19:16:09.266,0.16797,0.99414,0.06177;
19:16:09.276,0.15771,1.00024,0.06909;
19:16:09.286,0.15210,1.00537,0.07300;
19:16:09.296,0.14966,1.01318,0.08032;
19:16:09.306,0.15137,1.01929,0.09473;
19:16:09.316,0.15845,1.02441,0.09180;
19:16:09.326,0.15771,1.02734,0.07861;
19:16:09.336,0.15308,1.01904,0.06128;
19:16:09.346,0.15015,1.00220,0.05249;
19:16:09.356,0.14917,0.98706,0.05347;
19:16:09.366,0.14795,0.97681,0.07397;
19:16:09.376,0.14185,1.00708,0.08472;
19:16:09.386,0.14648,1.00879,0.07544;
19:16:09.396,0.14746,1.00977,0.07007;
19:16:09.406,0.14819,1.01733,0.06958;
19:16:09.416,0.15015,1.01245,0.06055;
19:16:09.426,0.15234,0.99414,0.05884;
19:16:09.436,0.15527,0.97876,0.06494;
19:16:09.446,0.15210,0.97949,0.06152;
19:16:09.456,0.14429,0.99487,0.06763;
19:16:09.466,0.14111,1.00610,0.07910;
19:16:09.476,0.14136,1.00928,0.08301;
19:16:09.486,0.14111,1.01001,0.07324;
19:16:09.496,0.14355,1.01050,0.05005;
19:16:09.506,0.14575,1.00342,0.03027;
19:16:09.516,0.14941,0.98828,0.02612;
19:16:09.526,0.15088,0.98145,0.04053;
19:16:09.536,0.14624,0.99487,0.05640;
19:16:09.546,0.14307,1.00806,0.06958;
19:16:09.556,0.14136,1.00684,0.07202;
19:16:09.566,0.14575,1.00635,0.07349;
19:16:09.576,0.14966,1.00708,0.06982;
19:16:09.586,0.15161,1.00464,0.06152;
19:16:09.596,0.15137,0.99780,0.05737;
19:16:09.606,0.15039,0.99316,0.05420;
19:16:09.616,0.15356,0.99854,0.05444;
19:16:09.626,0.14966,0.99854,0.05151;
19:16:09.636,0.14258,0.99390,0.04907;
19:16:09.646,0.13940,0.99072,0.05151;
19:16:09.656,0.13892,0.98511,0.05737;
19:16:09.666,0.13770,0.98389,0.05542;
19:16:09.676,0.13940,0.98438,0.04639;
19:16:09.686,0.13770,0.99048,0.02759;
19:16:09.696,0.13306,0.99316,0.03784;
19:16:09.706,0.13208,0.99536,0.04272;
19:16:09.716,0.13232,0.98999,0.05078;
19:16:09.726,0.13574,0.98218,0.05249;
19:16:09.736,0.14136,0.98022,0.03784;
19:16:09.746,0.14746,0.98657,0.02246;
19:16:09.756,0.14551,0.98901,0.02075;
19:16:09.766,0.14038,0.99023,0.02100;
19:16:09.776,0.13843,0.99854,0.02490;
19:16:09.786,0.13721,1.01001,0.03418;
19:16:09.796,0.13867,1.01367,0.03418;
19:16:09.806,0.13672,1.00952,0.03687;
19:16:09.816,0.13672,1.00195,0.03540;
19:16:09.826,0.13550,0.99365,0.02954;
19:16:09.836,0.13525,0.99023,0.03125;
19:16:09.846,0.13330,0.99072,0.03125;
19:16:09.856,0.13452,1.00049,0.03198;
19:16:09.866,0.13794,1.00757,0.03369;
19:16:09.876,0.13623,1.00464,0.03491;
19:16:09.886,0.13745,0.99609,0.03589;
19:16:09.896,0.13672,0.99268,0.04053;
19:16:09.906,0.13672,0.99878,0.03784;
19:16:09.916,0.13843,1.00391,0.03442;
19:16:09.926,0.13696,1.00073,0.03906;
19:16:09.936,0.13818,0.99512,0.03979;
19:16:09.946,0.13794,0.99219,0.04517;
19:16:09.956,0.13989,0.99438,0.04614;
19:16:09.966,0.14380,0.99414,0.04468;
19:16:09.976,0.14429,0.99316,0.03833;
19:16:09.986,0.14551,0.99829,0.03296;
19:16:09.996,0.14575,1.00000,0.03003;
19:16:10.006,0.14429,0.99341,0.03906;
19:16:10.016,0.14673,0.99854,0.03516;
19:16:10.026,0.14648,1.00317,0.02979;
19:16:10.036,0.14429,1.00098,0.02954;
19:16:10.046,0.14453,0.99756,0.03198;
19:16:10.056,0.14380,0.99683,0.03247;
19:16:10.066,0.14063,0.99487,0.04004;
19:16:10.076,0.13770,0.99609,0.04492;
19:16:10.086,0.13989,0.99951,0.04492;
19:16:10.096,0.14233,1.00073,0.03931;
19:16:10.106,0.14160,1.00220,0.03394;
19:16:10.116,0.14307,1.00000,0.03662;
19:16:10.126,0.14185,0.99243,0.04175;
19:16:10.136,0.14258,0.98682,0.05078;
19:16:10.146,0.14478,0.98901,0.05322;
19:16:10.156,0.14600,0.98657,0.06079;
19:16:10.166,0.14478,0.98950,0.06714;
19:16:10.176,0.14380,1.00049,0.06519;
19:16:10.186,0.14233,1.00610,0.05884;
19:16:10.196,0.14136,1.00879,0.03101;
19:16:10.206,0.14380,1.01465,0.02124;
19:16:10.216,0.14478,1.02246,0.04004;
19:16:10.226,0.14038,1.02539,0.04907;
19:16:10.236,0.13354,1.02417,0.05054;
19:16:10.246,0.13013,1.01855,0.06006;
19:16:10.256,0.12988,1.01733,0.07007;
19:16:10.266,0.13306,1.01050,0.06860;
19:16:10.276,0.13550,1.00562,0.06201;
19:16:10.286,0.13672,1.00513,0.05859;
19:16:10.296,0.13745,1.00146,0.04614;
19:16:10.306,0.13647,1.01025,0.04395;
19:16:10.316,0.14575,1.00977,0.04956;
19:16:10.326,0.14307,0.99878,0.05298;
19:16:10.336,0.13989,0.98511,0.04810;
19:16:10.346,0.13916,0.97339,0.04443;
19:16:10.356,0.14014,0.96460,0.03540;
19:16:10.366,0.14355,0.96973,0.03296;
19:16:10.376,0.14746,0.98120,0.03101;
19:16:10.386,0.14844,0.98633,0.03223;
19:16:10.396,0.14868,0.99097,0.03516;
19:16:10.406,0.14380,0.99731,0.03931;
19:16:10.416,0.14380,1.00024,0.04297;
19:16:10.426,0.14209,0.99878,0.04565;
19:16:10.436,0.13818,0.99390,0.04468;
19:16:10.446,0.13574,0.98730,0.03711;
19:16:10.456,0.13599,0.98560,0.02637;
19:16:10.466,0.13794,0.98779,0.01855;
19:16:10.476,0.13892,0.99219,0.02539;
19:16:10.486,0.13916,0.99463,0.02612;
19:16:10.496,0.13794,1.00513,0.02441;
19:16:10.506,0.14258,1.00928,0.03564;
19:16:10.516,0.14502,1.00659,0.03589;
19:16:10.526,0.14160,1.00000,0.03320;
19:16:10.536,0.13989,0.99438,0.03809;
19:16:10.546,0.13599,0.99292,0.04517;
19:16:10.556,0.13428,0.99146,0.04858;
19:16:10.566,0.13501,0.98999,0.04858;
19:16:10.576,0.13770,0.99341,0.05005;
19:16:10.586,0.14038,1.00562,0.05078;
19:16:10.596,0.14429,1.00781,0.04956;
19:16:10.606,0.14624,0.99878,0.04883;
19:16:10.616,0.14233,0.99146,0.04565;
19:16:10.626,0.14014,0.98804,0.04468;
19:16:10.636,0.14453,0.97949,0.06006;
19:16:10.646,0.14771,0.97852,0.06763;
19:16:10.656,0.14404,0.98755,0.07690;
19:16:10.666,0.13940,0.98364,0.07373;
19:16:10.676,0.13428,0.95679,0.07617;
19:16:10.686,0.14063,0.91064,0.10303;
19:16:10.696,0.14722,0.88721,0.11548;
19:16:10.706,0.15112,0.92139,0.10864;
19:16:10.716,0.15527,0.98804,0.07788;
19:16:10.726,0.15991,1.02515,0.06274;
19:16:10.736,0.16235,1.03662,0.07690;
19:16:10.746,0.16211,1.04346,0.10156;
19:16:10.756,0.15625,1.03076,0.11401;
19:16:10.766,0.14600,1.00928,0.12354;
19:16:10.776,0.14526,1.01050,0.14355;
19:16:10.786,0.14917,1.03076,0.12866;
19:16:10.796,0.15039,1.05078,0.11133;
19:16:10.806,0.14429,1.03979,0.14697;
19:16:10.816,0.14209,0.97803,0.23828;
19:16:10.826,0.13843,0.95117,0.28931;
19:16:10.836,0.13330,0.99585,0.28198;
19:16:10.846,0.12964,1.00708,0.29468;
19:16:10.856,0.12476,0.97656,0.33496;
19:16:10.866,0.12305,0.94849,0.32935;
19:16:10.876,0.13477,0.91943,0.28906;
19:16:10.886,0.14160,0.92554,0.27197;
19:16:10.896,0.14307,0.95898,0.25146;
19:16:10.906,0.14575,1.00684,0.26270;
19:16:10.916,0.14404,1.04639,0.30078;
19:16:10.926,0.13916,0.90405,0.34497;
19:16:10.936,0.11646,1.01147,0.33960;
19:16:10.946,0.18213,0.95728,0.19165;
19:16:10.956,0.21167,0.88110,0.12646;
19:16:10.966,0.20703,0.85913,0.15942;
19:16:10.976,0.19873,0.80005,0.19629;
19:16:10.986,0.20313,0.73120,0.24780;
19:16:10.996,0.18945,0.81030,0.31738;
19:16:11.006,0.15503,0.99390,0.34326;
19:16:11.016,0.15283,1.10205,0.30981;
19:16:11.026,0.16797,1.11816,0.27734;
19:16:11.036,0.17139,1.08398,0.25659;
19:16:11.046,0.15259,1.06079,0.24854;
19:16:11.056,0.13501,1.04150,0.24658;
19:16:11.066,0.13208,1.01636,0.24170;
19:16:11.076,0.13818,0.99023,0.24072;
19:16:11.086,0.15430,0.95703,0.24121;
19:16:11.096,0.17065,0.93457,0.24512;
19:16:11.106,0.18066,0.94971,0.25732;
19:16:11.116,0.18091,0.97192,0.26270;
19:16:11.126,0.17407,0.98877,0.27271;
19:16:11.136,0.18042,1.01904,0.27710;
19:16:11.146,0.19556,1.03223,0.26807;
19:16:11.156,0.20288,1.00098,0.25098;
19:16:11.166,0.19653,0.97241,0.24658;
19:16:11.176,0.18530,0.96289,0.24487;
19:16:11.186,0.16943,0.95532,0.24487;
19:16:11.196,0.15259,0.95581,0.25464;
19:16:11.206,0.14258,0.96973,0.27759;
19:16:11.216,0.14453,1.00098,0.28198;
19:16:11.226,0.15503,1.02515,0.26514;
19:16:11.236,0.14795,0.96997,0.25244;
19:16:11.246,0.14185,0.96167,0.25439;
19:16:11.256,0.14160,0.96411,0.25366;
19:16:11.266,0.14722,0.97339,0.24707;
19:16:11.276,0.16309,0.97705,0.23828;
19:16:11.286,0.17773,0.95605,0.22583;
19:16:11.296,0.18262,0.94336,0.21997;
19:16:11.306,0.18188,0.94800,0.22168;
19:16:11.316,0.17896,0.95044,0.23535;
19:16:11.326,0.16919,0.96680,0.25220;
19:16:11.336,0.16406,0.98608,0.24634;
19:16:11.346,0.16211,0.99487,0.24023;
19:16:11.356,0.15405,0.99438,0.23853;
19:16:11.366,0.14673,0.98242,0.23413;
19:16:11.376,0.14331,0.96655,0.22876;
19:16:11.386,0.14795,0.96118,0.21826;
19:16:11.396,0.15308,0.96387,0.20776;
19:16:11.406,0.15479,0.96509,0.20630;
19:16:11.416,0.15967,0.97070,0.20752;
19:16:11.426,0.16479,0.97119,0.19897;
19:16:11.436,0.17383,0.96875,0.19019;
19:16:11.446,0.17065,0.96387,0.17969;
19:16:11.456,0.16333,0.96387,0.17798;
19:16:11.466,0.16675,0.97485,0.18042;
19:16:11.476,0.17139,0.98438,0.17920;
19:16:11.486,0.17017,0.98291,0.18701;
19:16:11.496,0.16260,0.98242,0.19629;
19:16:11.506,0.15918,0.98633,0.20044;
19:16:11.516,0.15918,0.98486,0.20264;
19:16:11.526,0.16235,0.98364,0.19531;
19:16:11.536,0.15747,0.98560,0.18091;
19:16:11.546,0.16040,0.98169,0.18188;
19:16:11.556,0.15015,0.98291,0.19604;
19:16:11.566,0.15088,0.98340,0.20313;
19:16:11.576,0.14844,0.98926,0.20142;
19:16:11.586,0.15137,1.00171,0.19507;
19:16:11.596,0.15625,1.00244,0.19824;
19:16:11.606,0.16211,1.00439,0.19971;
19:16:11.616,0.18066,0.99585,0.17920;
19:16:11.626,0.19751,0.95313,0.15503;
19:16:11.636,0.18848,0.96265,0.14551;
19:16:11.646,0.18384,0.97729,0.14990;
19:16:11.656,0.18164,0.95825,0.17578;
19:16:11.666,0.16479,0.96338,0.19922;
19:16:11.676,0.15332,0.96167,0.20239;
19:16:11.686,0.15479,0.96069,0.19995;
19:16:11.696,0.16309,0.97437,0.18970;
19:16:11.706,0.16943,0.98584,0.17578;
19:16:11.716,0.16870,0.98218,0.16699;
19:16:11.726,0.16626,0.98657,0.16113;
19:16:11.736,0.16528,0.99341,0.15649;
19:16:11.746,0.16382,0.99463,0.15674;
19:16:11.756,0.16479,1.00049,0.15674;
19:16:11.766,0.16406,0.99854,0.16357;
19:16:11.776,0.16138,0.99390,0.17188;
19:16:11.786,0.16333,1.00000,0.17334;
19:16:11.796,0.17139,1.00708,0.17212;
19:16:11.806,0.17896,1.00513,0.17407;
19:16:11.816,0.18066,0.99243,0.17017;
19:16:11.826,0.18555,0.96216,0.15234;
19:16:11.836,0.18579,0.93604,0.14014;
19:16:11.846,0.18091,0.94971,0.13867;
19:16:11.856,0.17578,0.97021,0.16113;
19:16:11.866,0.16870,1.01099,0.18384;
19:16:11.876,0.16846,0.97583,0.16772;
19:16:11.886,0.16333,0.96362,0.16479;
19:16:11.896,0.15894,0.96143,0.16748;
19:16:11.906,0.15869,0.96558,0.18237;
19:16:11.916,0.15381,0.99341,0.18823;
19:16:11.926,0.15674,0.99414,0.19702;
19:16:11.936,0.15796,0.96558,0.21729;
19:16:11.946,0.17676,0.99023,0.17578;
19:16:11.956,0.17993,0.99438,0.18140;
19:16:11.966,0.17334,0.98877,0.20361;
19:16:11.976,0.18555,0.99512,0.20337;
19:16:11.986,0.19263,0.96289,0.17310;
19:16:11.996,0.18945,0.95313,0.16772;
19:16:12.006,0.18262,0.96533,0.17139;
19:16:12.016,0.18115,0.97583,0.18066;
19:16:12.026,0.18433,0.99170,0.18555;
19:16:12.036,0.18018,0.99829,0.18945;
19:16:12.046,0.17651,1.00513,0.19922;
19:16:12.056,0.17920,1.00635,0.19800;
19:16:12.066,0.18481,0.99390,0.19385;
19:16:12.076,0.18823,0.97778,0.18921;
19:16:12.086,0.18506,0.96948,0.18359;
19:16:12.096,0.18359,0.97192,0.19409;
19:16:12.106,0.18164,1.01074,0.18994;
19:16:12.116,0.17944,1.00000,0.19238;
19:16:12.126,0.17969,0.99365,0.19238;
19:16:12.136,0.18115,0.98828,0.19165;
19:16:12.146,0.18506,0.98828,0.18384;
19:16:12.156,0.18750,0.98291,0.18604;
19:16:12.166,0.18799,0.97363,0.19678;
19:16:12.176,0.19189,0.97046,0.20093;
19:16:12.186,0.19458,0.96802,0.19702;
19:16:12.196,0.19507,0.96997,0.18774;
19:16:12.206,0.19751,0.97754,0.17749;
19:16:12.216,0.19922,0.97168,0.17114;
19:16:12.226,0.19922,0.97168,0.17407;
19:16:12.236,0.19849,0.98486,0.17358;
19:16:12.246,0.19775,0.99097,0.17603;
19:16:12.256,0.19482,0.99902,0.18262;
19:16:12.266,0.19116,0.99902,0.18750;
19:16:12.276,0.18799,1.00171,0.18994;
19:16:12.286,0.18042,1.00879,0.18652;
19:16:12.296,0.17725,1.01221,0.18677;
19:16:12.306,0.18262,1.01074,0.19092;
19:16:12.316,0.19458,0.99170,0.17505;
19:16:12.326,0.20630,0.95630,0.15869;
19:16:12.336,0.20532,0.97046,0.16455;
19:16:12.346,0.19604,0.94775,0.17432;
19:16:12.356,0.18604,0.91577,0.19141;
19:16:12.366,0.17847,0.93408,0.19214;
19:16:12.376,0.18384,0.94043,0.18115;
19:16:12.386,0.19141,0.95825,0.17505;
19:16:12.396,0.19067,0.98022,0.17188;
19:16:12.406,0.19482,0.99268,0.16113;
19:16:12.416,0.19116,0.97241,0.14209;
19:16:12.426,0.19312,0.97070,0.15430;
19:16:12.436,0.19458,0.97363,0.15234;
19:16:12.446,0.19507,0.97998,0.14868;
19:16:12.456,0.19360,0.98535,0.15332;
19:16:12.466,0.19263,0.98682,0.15063;
19:16:12.476,0.19360,0.98755,0.14575;
19:16:12.486,0.19067,0.99023,0.14917;
19:16:12.496,0.18994,0.98926,0.15356;
19:16:12.506,0.19336,0.97803,0.16333;
19:16:12.516,0.19019,0.97632,0.16699;
19:16:12.526,0.18604,0.98340,0.17578;
19:16:12.536,0.18164,0.98560,0.18921;
19:16:12.546,0.18286,0.98730,0.18896;
19:16:12.556,0.18994,0.99243,0.17700;
19:16:12.566,0.19238,0.99316,0.17529;
19:16:12.576,0.19238,0.98633,0.17749;
19:16:12.586,0.19141,0.97974,0.18091;
19:16:12.596,0.19458,0.97778,0.17822;
19:16:12.606,0.19897,0.97729,0.16724;
19:16:12.616,0.20068,0.97021,0.16089;
19:16:12.626,0.19849,0.96680,0.16528;
19:16:12.636,0.19580,0.97217,0.16992;
19:16:12.646,0.19385,0.97632,0.17383;
19:16:12.656,0.19507,0.98560,0.18091;
19:16:12.666,0.19702,1.00024,0.17603;
19:16:12.676,0.20459,1.00098,0.16919;
19:16:12.686,0.20532,0.98779,0.16211;
19:16:12.696,0.19775,0.98120,0.16187;
19:16:12.706,0.19604,0.98364,0.16650;
19:16:12.716,0.18994,0.98926,0.17358;
19:16:12.726,0.18701,0.99512,0.18384;
19:16:12.736,0.18823,1.00000,0.17627;
19:16:12.746,0.19507,0.98804,0.15454;
19:16:12.756,0.19141,0.98218,0.14844;
19:16:12.766,0.18701,0.98853,0.14917;
19:16:12.776,0.18921,1.00098,0.14990;
19:16:12.786,0.19556,1.00537,0.15820;
19:16:12.796,0.20337,0.99927,0.15918;
19:16:12.806,0.20581,0.98218,0.15479;
19:16:12.816,0.20239,0.95898,0.15869;
19:16:12.826,0.19556,0.94873,0.16626;
19:16:12.836,0.19312,0.95972,0.17114;
19:16:12.846,0.20020,0.96851,0.17041;
19:16:12.856,0.20044,0.97778,0.17065;
19:16:12.866,0.19897,0.99219,0.17651;
19:16:12.876,0.19556,0.99048,0.17847;
19:16:12.886,0.18896,0.98657,0.17627;
19:16:12.896,0.18848,0.97607,0.15942;
19:16:12.906,0.18433,0.94580,0.14453;
19:16:12.916,0.17578,0.93286,0.15527;
19:16:12.926,0.18066,0.94531,0.16748;
19:16:12.936,0.19189,0.96216,0.17285;
19:16:12.946,0.19263,0.97778,0.17310;
19:16:12.956,0.18506,0.99487,0.17505;
19:16:12.966,0.18091,1.00586,0.17285;
19:16:12.976,0.18018,1.00513,0.17017;
19:16:12.986,0.18066,1.00244,0.17065;
19:16:12.996,0.18457,0.99121,0.16602;
19:16:13.006,0.18604,0.96973,0.15942;
19:16:13.016,0.18896,0.95996,0.14673;
19:16:13.026,0.19067,0.96094,0.14722;
19:16:13.036,0.19019,0.97461,0.16309;
19:16:13.046,0.19751,1.00879,0.14453;
19:16:13.056,0.21460,0.97339,0.11914;
19:16:13.066,0.21753,0.94922,0.11743;
19:16:13.076,0.21704,0.93579,0.12939;
19:16:13.086,0.21973,0.93311,0.12695;
19:16:13.096,0.22168,0.96069,0.13696;
19:16:13.106,0.21045,0.97754,0.14526;
19:16:13.116,0.18970,0.97461,0.16357;
19:16:13.126,0.18140,1.00293,0.16138;
19:16:13.136,0.18921,1.01343,0.14941;
19:16:13.146,0.18848,1.00635,0.15771;
19:16:13.156,0.19189,1.00220,0.15942;
19:16:13.166,0.19702,0.98193,0.17358;
19:16:13.176,0.19141,0.97314,0.17651;
19:16:13.186,0.19067,0.98901,0.18457;
19:16:13.196,0.19287,1.00317,0.19238;
19:16:13.206,0.19897,0.98779,0.17651;
19:16:13.216,0.20581,0.97827,0.16187;
19:16:13.226,0.21216,0.99194,0.16943;
19:16:13.236,0.21216,0.98389,0.18555;
19:16:13.246,0.19727,0.97412,0.19678;
19:16:13.256,0.18433,0.99951,0.19629;
19:16:13.266,0.18555,1.01709,0.19092;
19:16:13.276,0.18652,1.00781,0.17798;
19:16:13.286,0.18457,0.98560,0.17139;
19:16:13.296,0.18652,0.98242,0.16211;
19:16:13.306,0.18994,0.98413,0.15698;
19:16:13.316,0.19360,0.98828,0.15088;
19:16:13.326,0.19604,0.99951,0.14526;
19:16:13.336,0.19946,1.00220,0.15674;
19:16:13.346,0.20020,0.99170,0.16187;
19:16:13.356,0.19995,0.97388,0.15625;
19:16:13.366,0.19702,0.97070,0.13672;
19:16:13.376,0.19604,0.96021,0.13745;
19:16:13.386,0.19995,0.95605,0.13770;
19:16:13.396,0.20093,0.96069,0.14868;
19:16:13.406,0.19824,0.95898,0.16138;
19:16:13.416,0.19385,0.95483,0.16895;
19:16:13.426,0.19385,0.96191,0.17139;
19:16:13.436,0.19922,0.97803,0.16626;
19:16:13.446,0.20020,0.97705,0.15771;
19:16:13.456,0.19897,0.96948,0.14746;
19:16:13.466,0.19653,0.97168,0.14014;
19:16:13.476,0.19653,0.97559,0.13574;
19:16:13.486,0.19629,0.97949,0.13623;
19:16:13.496,0.19604,0.96948,0.13550;
19:16:13.506,0.19434,0.95117,0.13599;
19:16:13.516,0.19507,0.95654,0.13989;
19:16:13.526,0.19995,0.97705,0.14258;
19:16:13.536,0.19824,0.98682,0.14355;
19:16:13.546,0.19897,0.98755,0.13330;
19:16:13.556,0.19800,0.98975,0.12891;
19:16:13.566,0.19653,0.99365,0.13428;
19:16:13.576,0.19971,0.99731,0.13721;
19:16:13.586,0.19922,0.99414,0.14380;
19:16:13.596,0.19287,0.98364,0.15332;
19:16:13.606,0.18970,0.97510,0.15186;
19:16:13.616,0.18823,0.97192,0.14795;
19:16:13.626,0.18677,0.97949,0.15137;
19:16:13.636,0.18896,0.98608,0.15283;
19:16:13.646,0.19116,0.98682,0.15503;
19:16:13.656,0.19531,0.98486,0.15674;
19:16:13.666,0.19531,0.98291,0.15430;
19:16:13.676,0.20117,0.95923,0.14185;
19:16:13.686,0.18945,0.93677,0.14868;
19:16:13.696,0.18018,0.93774,0.14258;
19:16:13.706,0.16797,0.93091,0.13647;
19:16:13.716,0.15820,0.93213,0.12793;
19:16:13.726,0.14648,0.93530,0.12842;
19:16:13.736,0.13428,0.93042,0.13135;
19:16:13.746,0.12036,0.93677,0.13501;
19:16:13.756,0.11011,0.94531,0.14478;
19:16:13.766,0.11035,0.95117,0.14722;
19:16:13.776,0.11768,0.96411,0.14429;
19:16:13.786,0.12427,0.98267,0.12866;
19:16:13.796,0.13208,0.98975,0.10742;
19:16:13.806,0.13965,0.96533,0.09009;
19:16:13.816,0.14917,0.92651,0.07300;
19:16:13.826,0.15796,0.90845,0.07788;
19:16:13.836,0.16309,0.93140,0.10229;
19:16:13.846,0.16504,0.96802,0.10986;
19:16:13.856,0.15771,0.98120,0.12012;
19:16:13.866,0.14990,0.98169,0.14404;
19:16:13.876,0.15088,0.99731,0.16187;
19:16:13.886,0.16064,1.00781,0.16553;
19:16:13.896,0.18677,0.98950,0.16895;
19:16:13.906,0.20972,0.96387,0.18701;
19:16:13.916,0.23218,0.95654,0.21143;
19:16:13.926,0.26343,0.94238,0.21973;
19:16:13.936,0.27759,0.92896,0.22632;
19:16:13.946,0.29175,0.95215,0.23511;
19:16:13.956,0.31128,0.97559,0.24463;
19:16:13.966,0.32739,0.99927,0.24048;
19:16:13.976,0.34863,1.01123,0.22778;
19:16:13.986,0.42139,0.86255,0.21021;
19:16:13.996,0.48364,0.83765,0.20483;
19:16:14.006,0.51123,0.87476,0.20313;
19:16:14.016,0.54443,0.91040,0.21777;
19:16:14.026,0.57886,0.92432,0.24048;
19:16:14.036,0.60449,0.91699,0.25146;
19:16:14.046,0.61646,0.91113,0.25757;
19:16:14.056,0.62720,0.90405,0.26099;
19:16:14.066,0.63989,0.89136,0.24463;
19:16:14.076,0.65161,0.84277,0.20117;
19:16:14.086,0.65625,0.78394,0.14233;
19:16:14.096,0.65161,0.79834,0.11597;
19:16:14.106,0.65942,0.85278,0.11914;
19:16:14.116,0.67603,0.87109,0.12988;
19:16:14.126,0.68311,0.86548,0.16919;
19:16:14.136,0.66797,0.90479,0.21216;
19:16:14.146,0.65356,0.95728,0.22144;
19:16:14.156,0.64331,0.94995,0.19922;
19:16:14.166,0.63867,0.92798,0.17480;
19:16:14.176,0.64648,0.94531,0.15479;
19:16:14.186,0.64575,0.96362,0.13916;
19:16:14.196,0.63184,0.96436,0.14746;
19:16:14.206,0.61694,0.96216,0.16382;
19:16:14.216,0.61328,0.96167,0.14185;
19:16:14.226,0.60718,0.97119,0.11279;
19:16:14.236,0.59448,0.97827,0.08911;
19:16:14.246,0.57837,0.95728,0.05103;
19:16:14.256,0.55298,0.90698,0.01660;
19:16:14.266,0.53394,0.88696,-0.02222;
19:16:14.276,0.52612,0.87134,-0.05981;
19:16:14.286,0.51270,0.80371,-0.09814;
19:16:14.296,0.43164,0.72290,-0.13062;
19:16:14.306,0.38281,0.88867,-0.16602;
19:16:14.316,0.35864,0.91187,-0.14893;
19:16:14.326,0.34155,0.88965,-0.09229;
19:16:14.336,0.33716,0.88550,-0.03833;
19:16:14.346,0.32275,0.89380,-0.02075;
19:16:14.356,0.31250,0.90283,-0.03687;
19:16:14.366,0.31348,0.90698,-0.04150;
19:16:14.376,0.31958,0.94873,-0.05127;
19:16:14.386,0.32544,1.01904,-0.02734;
19:16:14.396,0.33765,1.06445,0.05542;
19:16:14.406,0.34985,1.09082,0.06689;
19:16:14.416,0.34106,1.11426,0.00854;
19:16:14.426,0.33228,1.06885,-0.02441;
19:16:14.436,0.33472,1.01245,-0.02979;
19:16:14.446,0.34302,1.01367,-0.04126;
19:16:14.456,0.36426,1.02759,-0.07983;
19:16:14.466,0.38330,1.00757,-0.13062;
19:16:14.476,0.38867,0.91821,-0.15405;
19:16:14.486,0.38232,0.82349,-0.15723;
19:16:14.496,0.37573,0.79028,-0.18555;
19:16:14.506,0.38770,0.80786,-0.20996;
19:16:14.516,0.42993,0.84644,-0.21997;
19:16:14.526,0.43335,0.82788,-0.23999;
19:16:14.536,0.42432,0.82715,-0.24341;
19:16:14.546,0.42310,0.84766,-0.23877;
19:16:14.556,0.43433,0.84570,-0.25317;
19:16:14.566,0.45215,0.82153,-0.26587;
19:16:14.576,0.45679,0.82080,-0.26514;
19:16:14.586,0.44434,0.85205,-0.26489;
19:16:14.596,0.41772,0.85547,-0.27759;
19:16:14.606,0.39746,0.80811,-0.31567;
19:16:14.616,0.40894,0.83667,-0.32495;
19:16:14.626,0.41064,0.85693,-0.30322;
19:16:14.636,0.40186,0.87720,-0.29614;
19:16:14.646,0.39575,0.84448,-0.31323;
19:16:14.656,0.39771,0.80859,-0.33789;
19:16:14.666,0.40283,0.80957,-0.35571;
19:16:14.676,0.40747,0.82373,-0.35205;
19:16:14.686,0.40845,0.86523,-0.33838;
19:16:14.696,0.40601,0.90503,-0.33203;
19:16:14.706,0.40332,0.91772,-0.31714;
19:16:14.716,0.39990,0.89380,-0.30859;
19:16:14.726,0.40186,0.87671,-0.30786;
19:16:14.736,0.40771,0.87744,-0.31006;
19:16:14.746,0.41431,0.88452,-0.31689;
19:16:14.756,0.41650,0.89526,-0.32227;
19:16:14.766,0.41357,0.88647,-0.32788;
19:16:14.776,0.40405,0.87134,-0.32764;
19:16:14.786,0.39648,0.87036,-0.32593;
19:16:14.796,0.39233,0.87134,-0.34961;
19:16:14.806,0.39185,0.86548,-0.34961;
19:16:14.816,0.39233,0.89990,-0.32959;
19:16:14.826,0.38623,0.93140,-0.33936;
19:16:14.836,0.38086,0.91357,-0.33569;
19:16:14.846,0.37769,0.90283,-0.32617;
19:16:14.856,0.36572,0.87524,-0.30005;
19:16:14.866,0.35107,0.85132,-0.28931;
19:16:14.876,0.35474,0.85815,-0.29248;
19:16:14.886,0.35254,0.89209,-0.27979;
19:16:14.896,0.34155,0.91064,-0.28931;
19:16:14.906,0.34009,0.90552,-0.29053;
19:16:14.916,0.34106,0.91284,-0.30078;
19:16:14.926,0.33716,0.89453,-0.32495;
19:16:14.936,0.36084,0.90015,-0.34766;
19:16:14.946,0.36523,0.92236,-0.33936;
19:16:14.956,0.35962,0.97754,-0.33276;
19:16:14.966,0.36792,0.98804,-0.33057;
19:16:14.976,0.39038,0.88843,-0.37158;
19:16:14.986,0.39771,0.82520,-0.39502;
19:16:14.996,0.39819,0.83350,-0.39209;
19:16:15.006,0.41577,0.85645,-0.38037;
19:16:15.016,0.43237,0.87158,-0.36060;
19:16:15.026,0.45361,0.82324,-0.37012;
19:16:15.036,0.46631,0.80908,-0.38281;
19:16:15.046,0.47241,0.82349,-0.38281;
19:16:15.056,0.49609,0.80908,-0.37598;
19:16:15.066,0.50854,0.82080,-0.36133;
19:16:15.076,0.51050,0.83154,-0.35229;
19:16:15.086,0.52490,0.84521,-0.34570;
19:16:15.096,0.54639,0.84668,-0.33398;
19:16:15.106,0.55908,0.81665,-0.31812;
19:16:15.116,0.57813,0.78613,-0.30908;
19:16:15.126,0.60083,0.78320,-0.30811;
19:16:15.136,0.60718,0.79028,-0.29810;
19:16:15.146,0.61304,0.79028,-0.31519;
19:16:15.156,0.61401,0.80176,-0.32617;
19:16:15.166,0.60620,0.79517,-0.33228;
19:16:15.176,0.61133,0.79199,-0.34033;
19:16:15.186,0.62451,0.80786,-0.32715;
19:16:15.196,0.63428,0.78491,-0.31934;
19:16:15.206,0.63867,0.77075,-0.33032;
19:16:15.216,0.63940,0.75562,-0.34351;
19:16:15.226,0.63452,0.73145,-0.34790;
19:16:15.236,0.64063,0.76855,-0.33130;
19:16:15.246,0.64087,0.77100,-0.31909;
19:16:15.256,0.64355,0.76563,-0.30151;
19:16:15.266,0.63379,0.76050,-0.26611;
19:16:15.276,0.61841,0.78906,-0.24902;
19:16:15.286,0.61182,0.82935,-0.25366;
19:16:15.296,0.60864,0.86157,-0.26172;
19:16:15.306,0.60840,0.86572,-0.26685;
19:16:15.316,0.61230,0.81812,-0.26343;
19:16:15.326,0.61548,0.77637,-0.27295;
19:16:15.336,0.62256,0.76343,-0.26855;
19:16:15.346,0.62329,0.76831,-0.26611;
19:16:15.356,0.62061,0.76318,-0.27124;
19:16:15.366,0.62451,0.72144,-0.28027;
19:16:15.376,0.62549,0.69629,-0.28687;
19:16:15.386,0.62671,0.72363,-0.28223;
19:16:15.396,0.63696,0.78467,-0.26782;
19:16:15.406,0.63501,0.82886,-0.25781;
19:16:15.416,0.63525,0.85547,-0.27783;
19:16:15.426,0.64258,0.87939,-0.30225;
19:16:15.436,0.64795,0.87207,-0.30396;
19:16:15.446,0.65796,0.82080,-0.29785;
19:16:15.456,0.66162,0.77100,-0.28101;
19:16:15.466,0.67676,0.73730,-0.25513;
19:16:15.476,0.68628,0.69604,-0.22778;
19:16:15.486,0.67480,0.66040,-0.22437;
19:16:15.496,0.67969,0.65991,-0.24121;
19:16:15.506,0.68774,0.67676,-0.22827;
19:16:15.516,0.68408,0.68652,-0.21143;
19:16:15.526,0.68335,0.69482,-0.20996;
19:16:15.536,0.68384,0.68481,-0.23340;
19:16:15.546,0.68604,0.69189,-0.21851;
19:16:15.556,0.75635,0.71021,-0.17896;
19:16:15.566,0.77075,0.73169,-0.17529;
19:16:15.576,0.77466,0.71802,-0.17114;
19:16:15.586,0.77002,0.71704,-0.16919;
19:16:15.596,0.75513,0.75415,-0.18506;
19:16:15.606,0.72729,0.75342,-0.18848;
19:16:15.616,0.70825,0.69043,-0.18823;
19:16:15.626,0.69971,0.64453,-0.21582;
19:16:15.636,0.70728,0.65747,-0.25781;
19:16:15.646,0.71362,0.68555,-0.26367;
19:16:15.656,0.70898,0.70972,-0.26050;
19:16:15.666,0.72119,0.74536,-0.28564;
19:16:15.676,0.73730,0.77344,-0.27075;
19:16:15.686,0.71753,0.76782,-0.26123;
19:16:15.696,0.69678,0.74121,-0.24463;
19:16:15.706,0.66821,0.72705,-0.17456;
19:16:15.716,0.63330,0.79102,-0.13721;
19:16:15.726,0.63135,0.86646,-0.14307;
19:16:15.736,0.63477,0.88232,-0.13306;
19:16:15.746,0.62793,0.91772,-0.09985;
19:16:15.756,0.61768,0.99194,-0.08594;
19:16:15.766,0.62451,1.01855,-0.08887;
19:16:15.776,0.63013,0.97607,-0.05420;
19:16:15.786,0.60693,0.99414,0.01440;
19:16:15.796,0.58594,1.18286,0.06323;
19:16:15.806,0.58545,1.35156,0.08984;
19:16:15.816,0.58740,1.37012,0.09912;
19:16:15.826,0.58740,1.29663,0.08740;
19:16:15.836,0.57471,1.24194,0.07251;
19:16:15.846,0.56519,1.25342,0.07007;
19:16:15.856,0.50513,1.20410,0.11572;
19:16:15.866,0.40869,1.13916,0.03076;
19:16:15.876,0.39185,1.14502,-0.00195;
19:16:15.886,0.37305,1.11279,0.00464;
19:16:15.896,0.32813,1.02856,-0.02417;
19:16:15.906,0.29346,0.96118,-0.12427;
19:16:15.916,0.28052,0.93579,-0.24219;
19:16:15.926,0.28809,0.92798,-0.30566;
19:16:15.936,0.27295,0.91992,-0.28516;
19:16:15.946,0.22559,0.90186,-0.26636;
19:16:15.956,0.19556,0.86182,-0.25879;
19:16:15.966,0.17627,0.80469,-0.29297;
19:16:15.976,0.14600,0.75781,-0.35498;
19:16:15.986,0.12427,0.72876,-0.39087;
19:16:15.996,0.12769,0.69482,-0.41479;
19:16:16.006,0.13745,0.65210,-0.45410;
19:16:16.016,0.14429,0.62891,-0.52246;
19:16:16.026,0.15088,0.59497,-0.50317;
19:16:16.036,0.15210,0.55225,-0.46069;
19:16:16.046,0.15283,0.56836,-0.48535;
19:16:16.056,0.16040,0.58325,-0.51831;
19:16:16.066,0.17334,0.55200,-0.52417;
19:16:16.076,0.18286,0.50879,-0.52393;
19:16:16.086,0.37964,0.22070,-0.67285;
19:16:16.096,0.42163,0.18799,-0.77417;
19:16:16.106,0.49341,0.19312,-0.88428;
19:16:16.116,0.50903,0.16333,-0.88306;
19:16:16.126,0.52344,0.18359,-0.87134;
19:16:16.136,0.51855,0.18384,-0.84644;
19:16:16.146,0.50806,0.12354,-0.82959;
19:16:16.156,0.49780,0.03442,-0.81592;
19:16:16.166,0.50024,-0.01587,-0.82544;
19:16:16.176,0.52466,0.01099,-0.87573;
19:16:16.186,0.56787,0.11548,-0.95068;
19:16:16.196,0.60742,0.24780,-1.02637;
19:16:16.206,0.63550,0.33569,-1.09106;
19:16:16.216,0.63330,0.35742,-1.11646;
19:16:16.226,0.61768,0.29761,-1.10181;
19:16:16.236,0.60620,0.21753,-1.04663;
19:16:16.246,0.58105,0.13062,-0.95337;
19:16:16.256,0.56079,0.04956,-0.85596;
19:16:16.266,0.55493,0.02344,-0.79785;
19:16:16.276,0.53809,0.03906,-0.78320;
19:16:16.286,0.52661,0.06934,-0.81128;
19:16:16.296,0.52954,0.11963,-0.87207;
19:16:16.306,0.52686,0.17920,-0.93530;
19:16:16.316,0.53027,0.25659,-0.98584;
19:16:16.326,0.52515,0.28467,-0.97681;
19:16:16.336,0.53027,0.29761,-0.94531;
19:16:16.346,0.53711,0.29248,-0.90186;
19:16:16.356,0.54321,0.29688,-0.86987;
19:16:16.366,0.53979,0.29932,-0.85083;
19:16:16.376,0.54028,0.28687,-0.83374;
19:16:16.386,0.53589,0.28809,-0.82520;
19:16:16.396,0.52881,0.31592,-0.86548;
19:16:16.406,0.50586,0.22900,-0.88379;
19:16:16.416,0.47559,0.20264,-0.85986;
19:16:16.426,0.46411,0.20117,-0.85303;
19:16:16.436,0.46313,0.20361,-0.85425;
19:16:16.446,0.46436,0.20874,-0.85645;
19:16:16.456,0.46265,0.22388,-0.86060;
19:16:16.466,0.46021,0.23901,-0.86621;
19:16:16.476,0.45117,0.24023,-0.86548;
19:16:16.486,0.45044,0.24512,-0.86157;
19:16:16.496,0.45288,0.24902,-0.86841;
19:16:16.506,0.45410,0.23267,-0.86987;
19:16:16.516,0.45752,0.21704,-0.87085;
19:16:16.526,0.46362,0.22656,-0.88257;
19:16:16.536,0.47144,0.24048,-0.88672;
19:16:16.546,0.47559,0.24097,-0.88623;
19:16:16.556,0.47534,0.24805,-0.89014;
19:16:16.566,0.48413,0.26001,-0.89502;
19:16:16.576,0.49121,0.27368,-0.89355;
19:16:16.586,0.48755,0.27661,-0.88379;
19:16:16.596,0.48438,0.26831,-0.87622;
19:16:16.606,0.48560,0.26465,-0.86694;
19:16:16.616,0.48682,0.26538,-0.86133;
19:16:16.626,0.48804,0.26147,-0.86890;
19:16:16.636,0.48730,0.25464,-0.87476;
19:16:16.646,0.48926,0.24268,-0.87866;
19:16:16.656,0.49170,0.22119,-0.87573;
19:16:16.666,0.49048,0.20483,-0.87085;
19:16:16.676,0.48828,0.20752,-0.86133;
19:16:16.686,0.48511,0.22510,-0.85498;
19:16:16.696,0.47949,0.24634,-0.85669;
19:16:16.706,0.46558,0.25171,-0.87280;
19:16:16.716,0.46460,0.25269,-0.87402;
19:16:16.726,0.46851,0.24609,-0.87354;
19:16:16.736,0.47290,0.23901,-0.87769;
19:16:16.746,0.47729,0.23242,-0.87378;
19:16:16.756,0.47729,0.22729,-0.86182;
19:16:16.766,0.47339,0.23804,-0.85303;
19:16:16.776,0.46924,0.25977,-0.85254;
19:16:16.786,0.46606,0.27441,-0.84766;
19:16:16.796,0.46655,0.28809,-0.84204;
19:16:16.806,0.46851,0.28931,-0.84326;
19:16:16.816,0.47510,0.27783,-0.84229;
19:16:16.826,0.47729,0.27881,-0.84692;
19:16:16.836,0.47485,0.27368,-0.85303;
19:16:16.846,0.47876,0.25537,-0.85767;
19:16:16.856,0.48462,0.23096,-0.86646;
19:16:16.866,0.48145,0.21655,-0.87109;
19:16:16.876,0.47607,0.21997,-0.87305;
19:16:16.886,0.48169,0.22656,-0.87939;
19:16:16.896,0.48267,0.24609,-0.88257;
19:16:16.906,0.47607,0.26831,-0.87524;
19:16:16.916,0.47314,0.27539,-0.86865;
19:16:16.926,0.47583,0.27197,-0.87231;
19:16:16.936,0.48096,0.26465,-0.87671;
19:16:16.946,0.48242,0.25464,-0.86865;
19:16:16.956,0.48535,0.24780,-0.85718;
19:16:16.966,0.48608,0.25000,-0.85303;
19:16:16.976,0.48511,0.24683,-0.85718;
19:16:16.986,0.48218,0.24243,-0.86426;
19:16:16.996,0.47681,0.24487,-0.86377;
19:16:17.006,0.47437,0.24805,-0.85815;
19:16:17.016,0.46680,0.26807,-0.86426;
19:16:17.026,0.46582,0.27881,-0.86743;
19:16:17.036,0.46582,0.28125,-0.86597;
19:16:17.046,0.46240,0.28125,-0.86133;
19:16:17.056,0.45703,0.28613,-0.85547;
19:16:17.066,0.44971,0.29248,-0.85010;
19:16:17.076,0.44727,0.29785,-0.85229;
19:16:17.086,0.45068,0.29419,-0.85669;
19:16:17.096,0.45483,0.29199,-0.85791;
19:16:17.106,0.46021,0.29614,-0.85669;
19:16:17.116,0.46045,0.29077,-0.86206;
19:16:17.126,0.46313,0.28271,-0.86426;
19:16:17.136,0.46289,0.27246,-0.86694;
19:16:17.146,0.46362,0.27344,-0.86206;
19:16:17.156,0.46558,0.28833,-0.85645;
19:16:17.166,0.46484,0.30225,-0.85425;
19:16:17.176,0.46631,0.30420,-0.85254;
19:16:17.186,0.47095,0.30444,-0.85669;
19:16:17.196,0.46167,0.31445,-0.85767;
19:16:17.206,0.45703,0.31714,-0.85498;
19:16:17.216,0.46240,0.31445,-0.85596;
19:16:17.226,0.45923,0.31250,-0.85596;
19:16:17.236,0.46118,0.30737,-0.85864;
19:16:17.246,0.46216,0.30371,-0.86157;
19:16:17.256,0.46118,0.30420,-0.85718;
19:16:17.266,0.46094,0.31201,-0.85864;
19:16:17.276,0.45825,0.31494,-0.85547;
19:16:17.286,0.45752,0.31055,-0.85254;
19:16:17.296,0.45776,0.30420,-0.85278;
19:16:17.306,0.45728,0.29663,-0.84668;
19:16:17.316,0.45776,0.29956,-0.84277;
19:16:17.326,0.45874,0.29688,-0.85474;
19:16:17.336,0.46069,0.30908,-0.85474;
19:16:17.346,0.46216,0.31006,-0.85449;
19:16:17.356,0.46216,0.31348,-0.85132;
19:16:17.366,0.46143,0.32300,-0.85034;
19:16:17.376,0.46240,0.32788,-0.84814;
19:16:17.386,0.46484,0.32715,-0.85254;
19:16:17.396,0.46484,0.31885,-0.85522;
19:16:17.406,0.46265,0.30981,-0.84961;
19:16:17.416,0.46216,0.30542,-0.85083;
19:16:17.426,0.46143,0.30957,-0.85229;
19:16:17.436,0.46216,0.30420,-0.85815;
19:16:17.446,0.46753,0.29346,-0.86084;
19:16:17.456,0.47168,0.28760,-0.85889;
19:16:17.466,0.47168,0.28394,-0.85815;
19:16:17.476,0.47119,0.28979,-0.85864;
19:16:17.486,0.47241,0.29688,-0.85742;
19:16:17.496,0.46973,0.29614,-0.85449;
19:16:17.506,0.46875,0.30151,-0.85620;
19:16:17.516,0.46826,0.30371,-0.85645;
19:16:17.526,0.46851,0.29712,-0.85376;
19:16:17.536,0.46655,0.30103,-0.85449;
19:16:17.546,0.46460,0.30688,-0.85571;
19:16:17.556,0.46582,0.30762,-0.85645;
19:16:17.566,0.46558,0.30762,-0.85742;
19:16:17.576,0.46899,0.30688,-0.85645;
19:16:17.586,0.46826,0.30273,-0.84668;
19:16:17.596,0.46533,0.30371,-0.84424;
19:16:17.606,0.46875,0.30713,-0.84741;
19:16:17.616,0.47314,0.30493,-0.84912;
19:16:17.626,0.47461,0.29956,-0.85400;
19:16:17.636,0.47339,0.30420,-0.85425;
19:16:17.646,0.47192,0.30591,-0.85718;
19:16:17.656,0.46875,0.29395,-0.85132;
19:16:17.666,0.46411,0.29712,-0.84863;
19:16:17.676,0.46118,0.29834,-0.85229;
19:16:17.686,0.46143,0.30151,-0.85107;
19:16:17.696,0.46289,0.30322,-0.84937;
19:16:17.706,0.46313,0.31201,-0.84790;
19:16:17.716,0.46313,0.32324,-0.84570;
19:16:17.726,0.46362,0.33032,-0.84814;
19:16:17.736,0.46191,0.32178,-0.85547;
19:16:17.746,0.46680,0.30469,-0.85376;
19:16:17.756,0.46265,0.30200,-0.85229;
19:16:17.766,0.45874,0.30688,-0.85693;
19:16:17.776,0.46313,0.30371,-0.85718;
19:16:17.786,0.46631,0.30371,-0.85815;
19:16:17.796,0.47021,0.30273,-0.85547;
19:16:17.806,0.47095,0.30103,-0.85571;
19:16:17.816,0.47290,0.30664,-0.85156;
19:16:17.826,0.47168,0.31152,-0.84912;
19:16:17.836,0.47070,0.31055,-0.85352;
19:16:17.846,0.46899,0.30298,-0.85083;
19:16:17.856,0.46655,0.29541,-0.84961;
19:16:17.866,0.46484,0.29492,-0.84766;
19:16:17.876,0.46484,0.30176,-0.85107;
19:16:17.886,0.46240,0.31030,-0.85547;
19:16:17.896,0.46216,0.30591,-0.84424;
19:16:17.906,0.46509,0.30518,-0.84131;
19:16:17.916,0.44849,0.31982,-0.84912;
19:16:17.926,0.44849,0.31616,-0.84448;
19:16:17.936,0.45654,0.31274,-0.83838;
19:16:17.946,0.45581,0.32178,-0.84180;
19:16:17.956,0.46875,0.29883,-0.85620;
19:16:17.966,0.46875,0.29712,-0.85815;
19:16:17.976,0.46899,0.30225,-0.85889;
19:16:17.986,0.46313,0.30688,-0.86011;
19:16:17.996,0.45874,0.30444,-0.86133;
19:16:18.006,0.45850,0.29663,-0.86279;
19:16:18.016,0.45947,0.29956,-0.85742;
19:16:18.026,0.46631,0.30469,-0.85010;
19:16:18.036,0.46655,0.31030,-0.85156;
19:16:18.046,0.46973,0.30908,-0.85571;
19:16:18.056,0.46875,0.30640,-0.86035;
19:16:18.066,0.46680,0.30835,-0.86108;
19:16:18.076,0.46606,0.30176,-0.85815;
19:16:18.086,0.46582,0.29883,-0.85229;
19:16:18.096,0.46411,0.30884,-0.84863;
19:16:18.106,0.46094,0.31787,-0.84668;
19:16:18.116,0.45679,0.32422,-0.84473;
19:16:18.126,0.45703,0.32886,-0.84448;
19:16:18.136,0.45874,0.32886,-0.84814;
19:16:18.146,0.45874,0.32373,-0.85278;
19:16:18.156,0.46094,0.31299,-0.85498;
19:16:18.166,0.46143,0.29858,-0.85327;
19:16:18.176,0.46338,0.29907,-0.84766;
19:16:18.186,0.46509,0.31104,-0.84985;
19:16:18.196,0.46631,0.31421,-0.85083;
19:16:18.206,0.46875,0.31641,-0.84912;
19:16:18.216,0.46631,0.32300,-0.84717;
19:16:18.226,0.46362,0.32861,-0.84839;
19:16:18.236,0.46338,0.32324,-0.85034;
19:16:18.246,0.46411,0.31055,-0.84888;
19:16:18.256,0.46533,0.30664,-0.85474;
19:16:18.266,0.46826,0.31372,-0.86133;
19:16:18.276,0.47559,0.32690,-0.88428;
19:16:18.286,0.47339,0.32080,-0.88037;
19:16:18.296,0.46167,0.32715,-0.86230;
19:16:18.306,0.45044,0.33447,-0.84229;
19:16:18.316,0.44727,0.33740,-0.83179;
19:16:18.326,0.44458,0.34277,-0.83350;
19:16:18.336,0.44287,0.33691,-0.83765;
19:16:18.346,0.44116,0.31982,-0.83911;
19:16:18.356,0.45044,0.29883,-0.83447;
19:16:18.366,0.45947,0.28857,-0.83521;
19:16:18.376,0.46680,0.28076,-0.83594;
19:16:18.386,0.47998,0.27563,-0.82690;
19:16:18.396,0.48682,0.26270,-0.83252;
19:16:18.406,0.48242,0.25586,-0.84668;
19:16:18.416,0.48413,0.25903,-0.85474;
19:16:18.426,0.49463,0.25513,-0.86621;
19:16:18.436,0.49414,0.25391,-0.86475;
19:16:18.446,0.49121,0.26367,-0.85718;
19:16:18.456,0.49048,0.27686,-0.85034;
19:16:18.466,0.48438,0.29834,-0.85645;
19:16:18.476,0.48193,0.31836,-0.86182;
19:16:18.486,0.47949,0.32568,-0.86230;
19:16:18.496,0.47510,0.32568,-0.86182;
19:16:18.506,0.47290,0.31982,-0.86816;
19:16:18.516,0.47388,0.31274,-0.87231;
19:16:18.526,0.47095,0.30347,-0.86914;
19:16:18.536,0.46387,0.30200,-0.86670;
19:16:18.546,0.46118,0.30151,-0.85913;
19:16:18.556,0.45703,0.30493,-0.85522;
19:16:18.566,0.45264,0.30884,-0.84985;
19:16:18.576,0.44482,0.31348,-0.83789;
19:16:18.586,0.44849,0.31836,-0.84155;
19:16:18.596,0.45386,0.31201,-0.84326;
19:16:18.606,0.45386,0.31299,-0.83960;
19:16:18.616,0.45288,0.32739,-0.83667;
19:16:18.626,0.45630,0.33984,-0.84204;
19:16:18.636,0.46045,0.33545,-0.84766;
19:16:18.646,0.46533,0.31812,-0.84985;
19:16:18.656,0.46826,0.30688,-0.85205;
19:16:18.666,0.46826,0.30518,-0.84888;
19:16:18.676,0.46997,0.31323,-0.85010;
19:16:18.686,0.46997,0.32129,-0.86011;
19:16:18.696,0.47095,0.31763,-0.86060;
19:16:18.706,0.47485,0.30347,-0.85571;
19:16:18.716,0.47583,0.29663,-0.85132;
19:16:18.726,0.47754,0.29907,-0.84839;
19:16:18.736,0.47974,0.30005,-0.85181;
19:16:18.746,0.48340,0.30615,-0.85400;
19:16:18.756,0.48291,0.30688,-0.85181;
19:16:18.766,0.48096,0.30762,-0.84668;
19:16:18.776,0.47803,0.31812,-0.84497;
19:16:18.786,0.47437,0.33057,-0.84888;
19:16:18.796,0.47388,0.33154,-0.84692;
19:16:18.806,0.47266,0.32349,-0.84644;
19:16:18.816,0.46875,0.31616,-0.84814;
19:16:18.826,0.46484,0.31982,-0.84912;
19:16:18.836,0.46533,0.32080,-0.84521;
19:16:18.846,0.46313,0.31201,-0.84302;
19:16:18.856,0.45972,0.30737,-0.84424;
19:16:18.866,0.46143,0.30908,-0.84644;
19:16:18.876,0.46411,0.31348,-0.84717;
19:16:18.886,0.46484,0.34204,-0.84229;
19:16:18.896,0.47046,0.31494,-0.84473;
19:16:18.906,0.47681,0.31372,-0.85034;
19:16:18.916,0.47876,0.30518,-0.84570;
19:16:18.926,0.47998,0.29932,-0.84644;
19:16:18.936,0.48340,0.29443,-0.85376;
19:16:18.946,0.48267,0.28760,-0.85229;
19:16:18.956,0.47925,0.28540,-0.84961;
19:16:18.966,0.47339,0.28784,-0.85083;
19:16:18.976,0.47144,0.29688,-0.85620;
19:16:18.986,0.46973,0.30444,-0.85254;
19:16:18.996,0.46704,0.30786,-0.84619;
19:16:19.006,0.46631,0.31909,-0.84473;
19:16:19.016,0.46753,0.33765,-0.84521;
19:16:19.026,0.46533,0.33813,-0.84326;
19:16:19.036,0.46509,0.32202,-0.84131;
19:16:19.046,0.46802,0.30054,-0.84180;
19:16:19.056,0.46851,0.29102,-0.84521;
19:16:19.066,0.47314,0.28223,-0.85083;
19:16:19.076,0.47632,0.27246,-0.84985;
19:16:19.086,0.47925,0.27490,-0.85474;
19:16:19.096,0.48291,0.28027,-0.85303;
19:16:19.106,0.48071,0.28491,-0.84644;
19:16:19.116,0.47900,0.29688,-0.84302;
19:16:19.126,0.47949,0.31348,-0.84253;
19:16:19.136,0.47998,0.31592,-0.84644;
19:16:19.146,0.48169,0.31055,-0.84766;
19:16:19.156,0.48169,0.30933,-0.84961;
19:16:19.166,0.48047,0.30371,-0.85229;
19:16:19.176,0.47852,0.29419,-0.85571;
19:16:19.186,0.48022,0.28931,-0.85205;
19:16:19.196,0.47266,0.31445,-0.84302;
19:16:19.206,0.46875,0.33569,-0.84204;
19:16:19.216,0.46851,0.33936,-0.84204;
19:16:19.226,0.46997,0.32935,-0.84302;
19:16:19.236,0.46802,0.31299,-0.85107;
19:16:19.246,0.47632,0.29907,-0.85889;
19:16:19.256,0.48145,0.28857,-0.86255;
19:16:19.266,0.48022,0.28125,-0.86353;
19:16:19.276,0.47754,0.27759,-0.85132;
19:16:19.286,0.46997,0.28931,-0.83691;
19:16:19.296,0.46655,0.31543,-0.83105;
19:16:19.306,0.46484,0.33496,-0.83276;
19:16:19.316,0.46484,0.32739,-0.83447;
19:16:19.326,0.46851,0.31128,-0.83911;
19:16:19.336,0.47437,0.29663,-0.84399;
19:16:19.346,0.48364,0.29272,-0.85352;
19:16:19.356,0.49243,0.27075,-0.85278;
19:16:19.366,0.49341,0.24438,-0.87012;
19:16:19.376,0.50122,0.22485,-0.88330;
19:16:19.386,0.50488,0.20264,-0.88354;
19:16:19.396,0.50000,0.17920,-0.88330;
19:16:19.406,0.49536,0.17407,-0.86914;
19:16:19.416,0.48706,0.20410,-0.87036;
19:16:19.426,0.47681,0.24512,-0.87500;
19:16:19.436,0.47070,0.27344,-0.87500;
19:16:19.446,0.46826,0.28271,-0.87183;
19:16:19.456,0.46191,0.28540,-0.86133;
19:16:19.466,0.45068,0.28711,-0.84521;
19:16:19.476,0.45215,0.30298,-0.83765;
19:16:19.486,0.46338,0.30566,-0.83130;
19:16:19.496,0.47778,0.30273,-0.82935;
19:16:19.506,0.48584,0.31958,-0.82324;
19:16:19.516,0.48950,0.31885,-0.79639;
19:16:19.526,0.48584,0.31006,-0.80127;
19:16:19.536,0.49292,0.30396,-0.81494;
19:16:19.546,0.50269,0.28320,-0.82617;
19:16:19.556,0.50684,0.26221,-0.84497;
19:16:19.566,0.50903,0.24512,-0.86401;
19:16:19.576,0.50879,0.24414,-0.88184;
19:16:19.586,0.50977,0.24854,-0.88770;
19:16:19.596,0.50928,0.25806,-0.88501;
19:16:19.606,0.50781,0.26758,-0.88062;
19:16:19.616,0.50073,0.27051,-0.87695;
19:16:19.626,0.48950,0.28296,-0.87256;
19:16:19.636,0.47949,0.30493,-0.86914;
19:16:19.646,0.46631,0.32422,-0.86304;
19:16:19.656,0.45459,0.33813,-0.84961;
19:16:19.666,0.45117,0.34277,-0.84204;
19:16:19.676,0.44092,0.33936,-0.84106;
19:16:19.686,0.42871,0.34741,-0.83252;
19:16:19.696,0.41724,0.36987,-0.83154;
19:16:19.706,0.41455,0.38159,-0.83740;
19:16:19.716,0.42676,0.36133,-0.82715;
19:16:19.726,0.43701,0.31714,-0.82031;
19:16:19.736,0.44580,0.31323,-0.82983;
19:16:19.746,0.46460,0.30225,-0.83569;
19:16:19.756,0.47974,0.28027,-0.83667;
19:16:19.766,0.48755,0.28223,-0.83667;
19:16:19.776,0.49341,0.29614,-0.84204;
19:16:19.786,0.49902,0.31372,-0.84985;
19:16:19.796,0.50000,0.31494,-0.84668;
19:16:19.806,0.49780,0.30957,-0.84644;
19:16:19.816,0.49805,0.30127,-0.84766;
19:16:19.826,0.49487,0.27686,-0.83789;
19:16:19.836,0.48755,0.28271,-0.84741;
19:16:19.846,0.49268,0.28735,-0.85400;
19:16:19.856,0.49097,0.28906,-0.85303;
19:16:19.866,0.48706,0.29248,-0.85767;
19:16:19.876,0.48633,0.28638,-0.86182;
19:16:19.886,0.48413,0.27954,-0.85986;
19:16:19.896,0.48511,0.29199,-0.85278;
19:16:19.906,0.48193,0.30811,-0.84326;
19:16:19.916,0.47534,0.30737,-0.84473;
19:16:19.926,0.47461,0.30054,-0.84937;
19:16:19.936,0.47119,0.29395,-0.84644;
19:16:19.946,0.46851,0.31079,-0.84033;
19:16:19.956,0.46509,0.33008,-0.83521;
19:16:19.966,0.46484,0.34326,-0.83618;
19:16:19.976,0.47290,0.34546,-0.83228;
19:16:19.986,0.48242,0.32373,-0.83960;
19:16:19.996,0.48877,0.29053,-0.84888;
19:16:20.006,0.49609,0.27368,-0.84644;
19:16:20.016,0.49805,0.26172,-0.85327;
19:16:20.026,0.49658,0.25708,-0.85742;
19:16:20.036,0.49731,0.27417,-0.84985;
19:16:20.046,0.49390,0.29736,-0.84644;
19:16:20.056,0.48975,0.31079,-0.84473;
19:16:20.066,0.48560,0.31982,-0.84521;
19:16:20.076,0.48438,0.32886,-0.84351;
19:16:20.086,0.48682,0.32520,-0.84058;
19:16:20.096,0.47778,0.30640,-0.84741;
19:16:20.106,0.47656,0.28613,-0.84521;
19:16:20.116,0.47705,0.28271,-0.84448;
19:16:20.126,0.46558,0.29102,-0.84912;
19:16:20.136,0.46997,0.28516,-0.84912;
19:16:20.146,0.47437,0.28369,-0.84888;
19:16:20.156,0.46875,0.28491,-0.85010;
19:16:20.166,0.46851,0.28662,-0.85059;
19:16:20.176,0.47339,0.28735,-0.85034;
19:16:20.186,0.47705,0.29395,-0.85376;
19:16:20.196,0.48096,0.30298,-0.85596;
19:16:20.206,0.48511,0.29858,-0.85913;
19:16:20.216,0.48608,0.29443,-0.85889;
19:16:20.226,0.48682,0.29468,-0.85547;
19:16:20.236,0.48706,0.28882,-0.85425;
19:16:20.246,0.48877,0.28223,-0.85059;
19:16:20.256,0.48828,0.27686,-0.84912;
19:16:20.266,0.48926,0.28149,-0.84912;
19:16:20.276,0.48535,0.28906,-0.85010;
19:16:20.286,0.47559,0.30615,-0.85010;
19:16:20.296,0.47510,0.32422,-0.84863;
19:16:20.306,0.47583,0.31494,-0.84692;
19:16:20.316,0.47437,0.28784,-0.84619;
19:16:20.326,0.47510,0.27515,-0.84814;
19:16:20.336,0.47778,0.28247,-0.84961;
19:16:20.346,0.46924,0.30542,-0.85034;
19:16:20.356,0.46997,0.30615,-0.85303;
19:16:20.366,0.45972,0.30737,-0.85352;
19:16:20.376,0.46167,0.29956,-0.84961;
19:16:20.386,0.46021,0.29761,-0.84985;
19:16:20.396,0.45825,0.30640,-0.85327;
19:16:20.406,0.46021,0.30884,-0.85425;
19:16:20.416,0.45972,0.29834,-0.85303;
19:16:20.426,0.45850,0.29395,-0.85693;
19:16:20.436,0.46411,0.29907,-0.85181;
19:16:20.446,0.46509,0.29785,-0.84912;
19:16:20.456,0.46411,0.29907,-0.84985;
19:16:20.466,0.46899,0.30273,-0.84497;
19:16:20.476,0.47070,0.30786,-0.84497;
19:16:20.486,0.47339,0.31055,-0.84888;
19:16:20.496,0.47900,0.31104,-0.85449;
19:16:20.506,0.48145,0.30200,-0.86035;
19:16:20.516,0.48438,0.28418,-0.85596;
19:16:20.526,0.48413,0.27808,-0.85400;
19:16:20.536,0.48511,0.28003,-0.85571;
19:16:20.546,0.48242,0.28809,-0.85425;
19:16:20.556,0.48022,0.29370,-0.85522;
19:16:20.566,0.48071,0.29834,-0.85303;
19:16:20.576,0.47705,0.30420,-0.85034;
19:16:20.586,0.47754,0.30957,-0.84937;
19:16:20.596,0.47485,0.31812,-0.84985;
19:16:20.606,0.46973,0.31958,-0.84888;
19:16:20.616,0.46631,0.31616,-0.84888;
19:16:20.626,0.46680,0.31274,-0.84961;
19:16:20.636,0.46558,0.30273,-0.84985;
19:16:20.646,0.46240,0.29663,-0.85303;
19:16:20.656,0.46655,0.29517,-0.84497;
19:16:20.666,0.46777,0.30249,-0.84790;
19:16:20.676,0.46655,0.31494,-0.84814;
19:16:20.686,0.46558,0.32007,-0.84741;
19:16:20.696,0.46558,0.31030,-0.85083;
19:16:20.706,0.46655,0.30005,-0.85132;
19:16:20.716,0.47168,0.28979,-0.85547;
19:16:20.726,0.47437,0.28564,-0.85596;
19:16:20.736,0.47388,0.28589,-0.85522;
19:16:20.746,0.47339,0.28735,-0.85962;
19:16:20.756,0.47266,0.29321,-0.86084;
19:16:20.766,0.46948,0.29736,-0.85571;
19:16:20.776,0.46973,0.30127,-0.85278;
19:16:20.786,0.47266,0.29712,-0.85547;
19:16:20.796,0.47168,0.29907,-0.85645;
19:16:20.806,0.47095,0.30615,-0.85767;
19:16:20.816,0.47314,0.31152,-0.85352;
19:16:20.826,0.47314,0.30957,-0.85010;
19:16:20.836,0.47290,0.30200,-0.84668;
19:16:20.846,0.47339,0.30371,-0.84912;
19:16:20.856,0.47241,0.30396,-0.85034;
19:16:20.866,0.47461,0.29956,-0.84814;
19:16:20.876,0.47461,0.30054,-0.85010;
19:16:20.886,0.46948,0.30469,-0.84814;
19:16:20.896,0.46680,0.31274,-0.84888;
19:16:20.906,0.46582,0.31860,-0.84277;
19:16:20.916,0.46582,0.30640,-0.83984;
19:16:20.926,0.46899,0.29468,-0.83594;
19:16:20.936,0.47559,0.28247,-0.83667;
19:16:20.946,0.48218,0.27588,-0.84570;
19:16:20.956,0.48779,0.26880,-0.86279;
19:16:20.966,0.48779,0.28101,-0.85498;
19:16:20.976,0.48657,0.31519,-0.85205;
19:16:20.986,0.48511,0.31641,-0.84497;
19:16:20.996,0.47998,0.31421,-0.84399;
19:16:21.006,0.47852,0.30981,-0.84619;
19:16:21.016,0.47925,0.29761,-0.84595;
19:16:21.026,0.47754,0.28711,-0.84814;
19:16:21.036,0.47876,0.28198,-0.85229;
19:16:21.046,0.47998,0.27588,-0.85449;
19:16:21.056,0.47827,0.27588,-0.85376;
19:16:21.066,0.48242,0.27930,-0.85303;
19:16:21.076,0.48364,0.28418,-0.85059;
19:16:21.086,0.48315,0.28687,-0.84839;
19:16:21.096,0.48169,0.29272,-0.84570;
19:16:21.106,0.47852,0.30615,-0.84253;
19:16:21.116,0.47632,0.30811,-0.84204;
19:16:21.126,0.47266,0.30322,-0.84229;
19:16:21.136,0.46899,0.30591,-0.83496;
19:16:21.146,0.46899,0.30884,-0.83350;
19:16:21.156,0.46729,0.30103,-0.83691;
19:16:21.166,0.46924,0.29688,-0.84985;
19:16:21.176,0.47534,0.29834,-0.86255;
19:16:21.186,0.48364,0.29346,-0.87744;
19:16:21.196,0.49316,0.28857,-0.88037;
19:16:21.206,0.48804,0.28516,-0.86450;
19:16:21.216,0.47485,0.29761,-0.85449;
19:16:21.226,0.47021,0.31543,-0.83740;
19:16:21.236,0.46680,0.33276,-0.83276;
19:16:21.246,0.46021,0.34839,-0.83496;
19:16:21.256,0.46753,0.35425,-0.82397;
19:16:21.266,0.47583,0.30005,-0.83398;
19:16:21.276,0.47803,0.27173,-0.83521;
19:16:21.286,0.48779,0.24829,-0.88379;
19:16:21.296,0.50439,0.24316,-0.89893;
19:16:21.306,0.50098,0.24731,-0.87183;
19:16:21.316,0.48584,0.27930,-0.84155;
19:16:21.326,0.47266,0.32788,-0.82837;
19:16:21.336,0.46826,0.37964,-0.82520;
19:16:21.346,0.46069,0.39307,-0.83350;
19:16:21.356,0.45679,0.36621,-0.84375;
19:16:21.366,0.45874,0.33325,-0.86377;
19:16:21.376,0.46729,0.30542,-0.87695;
19:16:21.386,0.47437,0.27100,-0.88062;
19:16:21.396,0.47803,0.24194,-0.87354;
19:16:21.406,0.48438,0.22729,-0.86475;
19:16:21.416,0.47852,0.23340,-0.85791;
19:16:21.426,0.47412,0.25342,-0.84985;
19:16:21.436,0.47778,0.27124,-0.83765;
19:16:21.446,0.48022,0.28662,-0.82422;
19:16:21.456,0.48291,0.30444,-0.82764;
19:16:21.466,0.48438,0.30933,-0.82935;
19:16:21.476,0.48755,0.30176,-0.83179;
19:16:21.486,0.49463,0.29370,-0.83887;
19:16:21.496,0.49878,0.26782,-0.84229;
19:16:21.506,0.50146,0.23657,-0.85571;
19:16:21.516,0.50781,0.21582,-0.85889;
19:16:21.526,0.51001,0.22021,-0.85303;
19:16:21.536,0.51172,0.22461,-0.86060;
19:16:21.546,0.50952,0.23291,-0.85938;
19:16:21.556,0.50635,0.25854,-0.85522;
19:16:21.566,0.50366,0.27832,-0.85303;
19:16:21.576,0.49829,0.29639,-0.86084;
19:16:21.586,0.49243,0.30518,-0.85327;
19:16:21.596,0.45776,0.34204,-0.83862;
19:16:21.606,0.43848,0.34180,-0.84253;
19:16:21.616,0.42505,0.32715,-0.84375;
19:16:21.626,0.42163,0.32446,-0.84521;
19:16:21.636,0.42505,0.32300,-0.84668;
19:16:21.646,0.43701,0.31885,-0.85620;
19:16:21.656,0.45459,0.30420,-0.86426;
19:16:21.666,0.46802,0.29102,-0.85938;
19:16:21.676,0.47217,0.28809,-0.85400;
19:16:21.686,0.47827,0.28662,-0.85449;
19:16:21.696,0.47974,0.28101,-0.85059;
19:16:21.706,0.48291,0.28125,-0.84814;
19:16:21.716,0.48657,0.28540,-0.84448;
19:16:21.726,0.48511,0.29248,-0.83936;
19:16:21.736,0.48804,0.28979,-0.84473;
19:16:21.746,0.49268,0.28174,-0.85352;
19:16:21.756,0.49341,0.27490,-0.85229;
19:16:21.766,0.49463,0.27002,-0.85425;
19:16:21.776,0.49756,0.27637,-0.85767;
19:16:21.786,0.50049,0.27075,-0.85181;
19:16:21.796,0.50024,0.25732,-0.86255;
19:16:21.806,0.49512,0.25244,-0.86572;
19:16:21.816,0.49268,0.25293,-0.85645;
19:16:21.826,0.48853,0.25684,-0.85742;
19:16:21.836,0.47925,0.28052,-0.84180;
19:16:21.846,0.47729,0.32861,-0.84741;
19:16:21.856,0.47607,0.32666,-0.85059;
19:16:21.866,0.47485,0.28809,-0.84302;
19:16:21.876,0.47583,0.27075,-0.84570;
19:16:21.886,0.47827,0.26392,-0.84302;
19:16:21.896,0.48120,0.24194,-0.84790;
19:16:21.906,0.48071,0.30200,-0.85181;
19:16:21.916,0.48291,0.30518,-0.85474;
19:16:21.926,0.48145,0.30151,-0.85742;
19:16:21.936,0.48218,0.29712,-0.85669;
19:16:21.946,0.48145,0.29492,-0.85620;
19:16:21.956,0.48071,0.28809,-0.85864;
19:16:21.966,0.47949,0.28296,-0.85059;
19:16:21.976,0.47900,0.29419,-0.85767;
19:16:21.986,0.48438,0.29907,-0.87134;
19:16:21.996,0.48560,0.28516,-0.87183;
19:16:22.006,0.48584,0.27856,-0.86548;
19:16:22.016,0.48291,0.28491,-0.86035;
19:16:22.026,0.47681,0.29492,-0.85547;
19:16:22.036,0.46899,0.29932,-0.84863;
19:16:22.046,0.46045,0.30615,-0.84180;
19:16:22.056,0.45654,0.32495,-0.83667;
19:16:22.066,0.47363,0.33423,-0.83081;
19:16:22.076,0.48389,0.26807,-0.81592;
19:16:22.086,0.46313,0.25659,-0.83398;
19:16:22.096,0.47607,0.27393,-0.84058;
19:16:22.106,0.49414,0.25854,-0.84814;
19:16:22.116,0.48877,0.26709,-0.86182;
19:16:22.126,0.50073,0.26172,-0.85864;
19:16:22.136,0.51611,0.26709,-0.86572;
19:16:22.146,0.52148,0.27490,-0.86426;
19:16:22.156,0.52710,0.30688,-0.86914;
19:16:22.166,0.54565,0.31519,-0.86670;
19:16:22.176,0.57007,0.29395,-0.86133;
19:16:22.186,0.55786,0.28564,-0.86914;
19:16:22.196,0.55835,0.30444,-0.90356;
19:16:22.206,0.63281,0.40479,-0.89844;
19:16:22.216,0.62134,0.36108,-0.87500;
19:16:22.226,0.61182,0.33911,-0.88110;
19:16:22.236,0.60669,0.38232,-0.88525;
19:16:22.246,0.58423,0.39966,-0.88794;
19:16:22.256,0.57227,0.35229,-0.91479;
19:16:22.266,0.57617,0.30029,-0.95142;
19:16:22.276,0.61011,0.27295,-0.96924;
19:16:22.286,0.62817,0.18823,-0.96460;
19:16:22.296,0.59326,0.10376,-0.95410;
19:16:22.306,0.55957,0.02002,-0.97998;
19:16:22.316,0.55298,-0.05273,-1.03320;
19:16:22.326,0.55518,-0.03711,-1.06934;
19:16:22.336,0.53247,-0.02075,-1.08154;
19:16:22.346,0.49927,-0.01611,-1.05420;
19:16:22.356,0.45581,-0.03027,-1.03320;
19:16:22.366,0.43945,-0.01392,-1.04956;
19:16:22.376,0.41455,-0.01733,-1.04370;
19:16:22.386,0.38428,-0.07300,-1.02490;
19:16:22.396,0.36963,-0.09692,-1.05737;
19:16:22.406,0.35400,-0.08789,-1.10840;
19:16:22.416,0.35693,-0.11694,-1.11035;
19:16:22.426,0.34229,-0.17065,-1.08252;
19:16:22.436,0.29199,-0.22778,-1.04858;
19:16:22.446,0.23730,-0.28052,-1.02100;
19:16:22.456,0.21509,-0.27051,-1.04565;
19:16:22.466,0.23560,-0.23657,-1.06567;
19:16:22.476,0.25610,-0.24512,-1.03809;
19:16:22.486,0.25732,-0.29761,-0.99585;
19:16:22.496,0.25854,-0.32520,-0.96313;
19:16:22.506,0.25952,-0.31201,-0.90479;
19:16:22.516,0.20483,-0.35962,-0.83813;
19:16:22.526,0.14063,-0.35742,-0.79419;
19:16:22.536,0.12378,-0.36865,-0.80054;
19:16:22.546,0.12402,-0.36646,-0.79468;
19:16:22.556,0.11792,-0.34326,-0.78662;
19:16:22.566,0.10938,-0.34570,-0.77930;
19:16:22.576,0.11157,-0.35352,-0.76855;
19:16:22.586,0.10889,-0.34912,-0.76440;
19:16:22.596,0.11890,-0.33472,-0.77271;
19:16:22.606,0.12695,-0.31030,-0.77856;
19:16:22.616,0.12646,-0.29907,-0.78638;
19:16:22.626,0.11475,-0.31982,-0.79126;
19:16:22.636,0.10278,-0.35034,-0.78857;
19:16:22.646,0.09351,-0.39746,-0.75977;
19:16:22.656,0.08447,-0.44458,-0.71875;
19:16:22.666,0.08496,-0.44238,-0.69580;
19:16:22.676,0.09204,-0.41016,-0.69507;
19:16:22.686,0.12280,-0.38428,-0.73926;
19:16:22.696,0.14575,-0.36719,-0.79419;
19:16:22.706,0.15405,-0.36157,-0.84106;
19:16:22.716,0.16406,-0.38379,-0.86865;
19:16:22.726,0.16699,-0.41724,-0.86572;
19:16:22.736,0.16504,-0.44360,-0.83154;
19:16:22.746,0.15625,-0.44360,-0.77905;
19:16:22.756,0.15552,-0.45068,-0.73706;
19:16:22.766,0.15503,-0.46851,-0.72314;
19:16:22.776,0.16138,-0.46802,-0.75195;
19:16:22.786,0.19629,-0.44336,-0.82397;
19:16:22.796,0.22412,-0.44873,-0.87866;
19:16:22.806,0.22754,-0.46606,-0.89087;
19:16:22.816,0.22461,-0.45361,-0.86987;
19:16:22.826,0.20142,-0.47754,-0.79712;
19:16:22.836,0.20679,-0.46387,-0.75488;
19:16:22.846,0.21948,-0.47803,-0.78052;
19:16:22.856,0.25903,-0.45923,-0.84351;
19:16:22.866,0.28833,-0.43726,-0.89819;
19:16:22.876,0.29736,-0.42212,-0.92407;
19:16:22.886,0.30322,-0.42310,-0.93091;
19:16:22.896,0.31006,-0.44189,-0.91553;
19:16:22.906,0.31445,-0.46704,-0.87842;
19:16:22.916,0.29712,-0.47827,-0.80688;
19:16:22.926,0.28589,-0.45532,-0.75195;
19:16:22.936,0.29370,-0.46851,-0.74194;
19:16:22.946,0.31396,-0.49390,-0.76709;
19:16:22.956,0.32495,-0.47827,-0.80640;
19:16:22.966,0.32788,-0.47144,-0.85254;
19:16:22.976,0.33716,-0.47070,-0.89624;
19:16:22.986,0.33276,-0.47559,-0.92090;
19:16:22.996,0.31836,-0.47827,-0.88965;
19:16:23.006,0.30200,-0.46973,-0.86401;
19:16:23.016,0.28467,-0.46021,-0.84058;
19:16:23.026,0.27173,-0.46143,-0.81323;
19:16:23.036,0.26416,-0.45654,-0.79785;
19:16:23.046,0.25854,-0.42041,-0.81567;
19:16:23.056,0.25464,-0.34766,-0.85083;
19:16:23.066,0.23413,-0.30078,-0.86475;
19:16:23.076,0.20093,-0.29688,-0.85718;
19:16:23.086,0.16675,-0.29468,-0.85034;
19:16:23.096,0.14990,-0.29761,-0.85156;
19:16:23.106,0.15308,-0.25732,-0.88452;
19:16:23.116,0.14966,-0.11206,-0.95313;
19:16:23.126,0.15234,-0.02539,-1.02344;
19:16:23.136,0.16943,-0.02222,-1.05322;
19:16:23.146,0.20093,0.11157,-1.07666;
19:16:23.156,0.20874,0.19824,-1.08179;
19:16:23.166,0.20117,0.18921,-1.08398;
19:16:23.176,0.20313,0.18848,-1.10059;
19:16:23.186,0.21826,0.15503,-1.12109;
19:16:23.196,0.23779,0.09717,-1.13184;
19:16:23.206,0.25952,0.03857,-1.15137;
19:16:23.216,0.27197,-0.01221,-1.15723;
19:16:23.226,0.28101,-0.02734,-1.14819;
19:16:23.236,0.28174,0.02100,-1.08862;
19:16:23.246,0.26563,0.07080,-1.00635;
19:16:23.256,0.26416,0.07861,-0.97461;
19:16:23.266,0.30566,-0.17578,-1.02612;
19:16:23.276,0.34619,-0.19678,-1.08813;
19:16:23.286,0.35840,-0.18555,-1.10303;
19:16:23.296,0.34814,-0.17456,-1.09277;
19:16:23.306,0.30981,-0.13818,-1.05469;
19:16:23.316,0.30029,-0.10107,-1.05249;
19:16:23.326,0.34155,-0.16602,-1.08618;
19:16:23.336,0.36841,-0.27783,-1.09473;
19:16:23.346,0.37817,-0.38696,-1.04199;
19:16:23.356,0.37085,-0.36938,-0.95508;
19:16:23.366,0.32617,-0.24731,-0.91797;
19:16:23.376,0.28638,-0.22534,-0.91431;
19:16:23.386,0.28516,-0.28638,-0.92529;
19:16:23.396,0.30615,-0.33789,-0.95166;
19:16:23.406,0.31763,-0.34888,-0.97559;
19:16:23.416,0.17529,-0.34180,-1.00586;
19:16:23.426,0.19409,-0.15601,-0.99121;
19:16:23.436,0.04297,-0.29443,-0.98047;
19:16:23.446,0.26660,-0.26489,-0.89038;
19:16:23.456,0.07568,-0.20215,-0.89966;
19:16:23.466,0.21338,-0.15015,-0.90601;
19:16:23.476,0.22607,-0.18530,-0.95898;
19:16:23.486,0.32739,-0.16382,-0.98828;
19:16:23.496,0.24316,-0.18945,-1.02368;
19:16:23.506,0.17285,-0.15796,-1.02100;
19:16:23.516,0.09839,-0.13477,-0.99634;
19:16:23.526,0.10791,-0.11230,-1.01245;
19:16:23.536,0.11450,-0.10889,-1.02197;
19:16:23.546,0.13989,-0.10791,-1.03491;
19:16:23.556,0.14722,-0.10083,-1.02393;
19:16:23.566,0.15405,-0.13574,-0.98389;
19:16:23.576,0.16992,-0.18115,-0.96704;
19:16:23.586,0.20044,-0.17603,-0.95679;
19:16:23.596,0.28955,-0.17041,-0.93042;
19:16:23.606,0.23389,-0.19263,-0.95264;
19:16:23.616,0.13965,-0.10938,-0.97607;
19:16:23.626,0.14771,-0.13208,-0.98218;
19:16:23.636,0.25269,-0.25488,-0.99072;
19:16:23.646,0.30151,-0.28125,-0.96484;
19:16:23.656,0.25293,-0.26416,-0.91943;
19:16:23.666,0.24487,-0.19897,-0.88916;
19:16:23.676,0.21411,-0.15356,-0.88525;
19:16:23.686,0.21460,-0.11133,-0.90210;
19:16:23.696,0.22314,-0.06787,-0.95337;
19:16:23.706,0.23999,-0.14063,-0.97314;
19:16:23.716,0.22681,-0.17139,-0.97363;
19:16:23.726,0.20776,-0.19312,-0.97119;
19:16:23.736,0.22729,-0.24170,-0.89282;
19:16:23.746,0.22339,-0.27173,-0.87500;
19:16:23.756,0.21216,-0.30420,-0.88037;
19:16:23.766,0.20703,-0.31592,-0.91846;
19:16:23.776,0.20313,-0.31104,-0.96899;
19:16:23.786,0.21167,-0.32349,-1.00464;
19:16:23.796,0.22290,-0.34375,-1.02368;
19:16:23.806,0.25244,-0.35278,-1.02295;
19:16:23.816,0.27686,-0.34937,-0.98584;
19:16:23.826,0.27734,-0.30225,-0.94116;
19:16:23.836,0.28027,-0.29883,-0.91333;
19:16:23.846,0.27100,-0.31348,-0.89380;
19:16:23.856,0.26782,-0.32715,-0.90234;
19:16:23.866,0.26294,-0.34595,-0.94214;
19:16:23.876,0.19922,-0.31885,-0.97949;
19:16:23.886,0.08862,-0.24854,-0.99658;
19:16:23.896,0.00854,-0.16992,-0.98560;
19:16:23.906,0.09058,-0.20508,-0.94580;
19:16:23.916,0.11499,-0.21606,-0.94971;
19:16:23.926,0.14844,-0.21899,-0.95386;
19:16:23.936,0.15063,-0.21045,-0.96875;
19:16:23.946,0.14331,-0.19385,-0.98047;
19:16:23.956,0.16675,-0.22192,-0.99268;
19:16:23.966,0.17090,-0.21851,-1.00439;
19:16:23.976,0.13989,-0.18262,-1.01465;
19:16:23.986,0.13159,-0.18213,-1.01855;
19:16:23.996,0.12329,-0.16846,-1.01099;
19:16:24.006,0.12744,-0.16431,-1.00024;
19:16:24.016,0.13892,-0.20166,-0.97925;
19:16:24.026,0.16089,-0.20972,-0.95361;
19:16:24.036,0.16699,-0.20557,-0.96777;
19:16:24.046,0.16846,-0.20703,-0.97510;
19:16:24.056,0.16016,-0.19849,-0.98169;
19:16:24.066,0.16016,-0.20215,-0.96802;
19:16:24.076,0.15869,-0.21118,-0.94019;
19:16:24.086,0.15161,-0.21533,-0.91382;
19:16:24.096,0.15112,-0.22144,-0.90454;
19:16:24.106,0.15649,-0.22461,-0.91479;
19:16:24.116,0.15942,-0.22632,-0.92603;
19:16:24.126,0.15698,-0.22485,-0.94409;
19:16:24.136,0.16040,-0.22363,-0.96265;
19:16:24.146,0.16187,-0.22192,-0.97021;
19:16:24.156,0.16431,-0.21948,-0.98047;
19:16:24.166,0.17358,-0.22827,-0.98315;
19:16:24.176,0.16870,-0.23022,-0.98633;
19:16:24.186,0.16821,-0.22559,-0.99194;
19:16:24.196,0.17798,-0.23267,-0.98657;
19:16:24.206,0.17310,-0.23242,-0.97095;
19:16:24.216,0.16138,-0.22510,-0.95874;
19:16:24.226,0.16357,-0.22339,-0.95898;
19:16:24.236,0.17847,-0.22559,-0.96777;
19:16:24.246,0.18408,-0.23218,-0.97632;
19:16:24.256,0.18213,-0.23560,-0.97632;
19:16:24.266,0.18042,-0.23901,-0.97070;
19:16:24.276,0.17773,-0.24487,-0.97095;
19:16:24.286,0.17261,-0.22559,-0.97119;
19:16:24.296,0.16455,-0.25171,-0.98413;
19:16:24.306,0.16650,-0.24072,-0.98047;
19:16:24.316,0.17407,-0.23047,-0.98315;
19:16:24.326,0.18359,-0.23779,-0.98584;
19:16:24.336,0.19043,-0.25269,-0.97607;
19:16:24.346,0.18359,-0.25610,-0.96411;
19:16:24.356,0.17090,-0.25073,-0.95630;
19:16:24.366,0.16919,-0.25098,-0.95459;
19:16:24.376,0.16992,-0.23633,-0.95068;
19:16:24.386,0.16504,-0.20874,-0.95728;
19:16:24.396,0.16602,-0.19556,-0.96997;
19:16:24.406,0.17114,-0.20117,-0.96948;
19:16:24.416,0.17285,-0.21582,-0.96851;
19:16:24.426,0.17310,-0.21631,-0.97070;
19:16:24.436,0.17358,-0.21680,-0.97290;
19:16:24.446,0.17847,-0.22119,-0.97632;
19:16:24.456,0.17822,-0.21167,-0.96826;
19:16:24.466,0.17480,-0.18921,-0.96875;
19:16:24.476,0.17334,-0.17065,-0.97583;
19:16:24.486,0.17554,-0.16455,-0.98462;
19:16:24.496,0.18799,-0.16650,-1.00171;
19:16:24.506,0.19043,-0.17383,-1.00586;
19:16:24.516,0.18018,-0.17725,-0.99658;
19:16:24.526,0.16821,-0.17871,-0.98218;
19:16:24.536,0.16016,-0.17432,-0.97046;
19:16:24.546,0.15601,-0.16064,-0.96313;
19:16:24.556,0.15796,-0.14795,-0.96680;
19:16:24.566,0.16064,-0.13916,-0.97412;
19:16:24.576,0.16113,-0.14258,-0.97559;
19:16:24.586,0.16064,-0.15503,-0.97681;
19:16:24.596,0.15234,-0.19897,-0.97852;
19:16:24.606,0.15308,-0.17871,-0.99976;
19:16:24.616,0.15649,-0.16626,-1.00806;
19:16:24.626,0.15723,-0.15308,-1.00903;
19:16:24.636,0.16089,-0.14819,-1.00757;
19:16:24.646,0.16626,-0.15649,-1.00439;
19:16:24.656,0.16968,-0.17017,-1.00024;
19:16:24.666,0.17041,-0.17969,-0.99609;
19:16:24.676,0.16870,-0.18872,-0.98804;
19:16:24.686,0.16748,-0.19971,-0.98535;
19:16:24.696,0.16089,-0.19678,-0.98315;
19:16:24.706,0.15894,-0.18188,-0.98853;
19:16:24.716,0.16235,-0.17407,-0.99414;
19:16:24.726,0.16333,-0.19019,-0.99121;
19:16:24.736,0.16357,-0.19824,-0.98950;
19:16:24.746,0.16431,-0.20557,-0.98047;
19:16:24.756,0.16260,-0.20801,-0.98022;
19:16:24.766,0.16919,-0.20215,-0.97827;
19:16:24.776,0.17749,-0.20313,-0.97632;
19:16:24.786,0.17090,-0.18286,-0.97485;
19:16:24.796,0.16333,-0.15894,-0.97705;
19:16:24.806,0.15894,-0.14844,-0.98340;
19:16:24.816,0.16553,-0.15283,-0.97876;
19:16:24.826,0.16772,-0.16016,-0.97852;
19:16:24.836,0.17041,-0.16479,-0.98364;
19:16:24.846,0.17578,-0.17456,-0.98755;
19:16:24.856,0.17090,-0.17944,-0.98730;
19:16:24.866,0.16797,-0.17236,-0.98633;
19:16:24.876,0.16504,-0.17212,-0.98218;
19:16:24.886,0.16748,-0.16602,-0.97266;
19:16:24.896,0.16553,-0.16748,-0.95947;
19:16:24.906,0.16992,-0.18188,-0.96729;
19:16:24.916,0.18018,-0.18945,-0.96777;
19:16:24.926,0.18115,-0.19751,-0.95654;
19:16:24.936,0.17920,-0.19897,-0.95483;
19:16:24.946,0.17651,-0.19775,-0.95874;
19:16:24.956,0.17090,-0.20239,-0.96265;
19:16:24.966,0.16846,-0.20068,-0.96338;
19:16:24.976,0.17358,-0.18823,-0.96777;
19:16:24.986,0.17505,-0.18311,-0.97339;
19:16:24.996,0.18628,-0.19165,-0.98169;
19:16:25.006,0.19214,-0.20532,-0.98608;
19:16:25.016,0.19067,-0.21216,-0.97998;
19:16:25.026,0.18481,-0.21289,-0.97266;
19:16:25.036,0.17944,-0.21777,-0.97241;
19:16:25.046,0.17871,-0.22241,-0.98633;
19:16:25.056,0.18091,-0.22119,-1.00024;
19:16:25.066,0.18091,-0.21240,-0.99976;
19:16:25.076,0.17554,-0.20728,-0.99390;
19:16:25.086,0.17358,-0.21265,-0.98706;
19:16:25.096,0.17822,-0.22021,-0.98413;
19:16:25.106,0.18262,-0.22681,-0.98169;
19:16:25.116,0.18555,-0.22754,-0.98389;
19:16:25.126,0.18726,-0.22266,-0.98608;
19:16:25.136,0.18164,-0.21948,-0.98071;
19:16:25.146,0.17554,-0.21460,-0.98071;
19:16:25.156,0.17432,-0.21387,-0.97632;
19:16:25.166,0.17188,-0.22388,-0.97241;
19:16:25.176,0.17676,-0.23047,-0.97485;
19:16:25.186,0.18604,-0.23877,-0.98022;
19:16:25.196,0.18726,-0.23608,-0.98120;
19:16:25.206,0.18604,-0.22534,-0.98071;
19:16:25.216,0.18579,-0.21948,-0.97412;
19:16:25.226,0.17505,-0.20215,-0.95605;
19:16:25.236,0.17285,-0.21777,-0.94336;
19:16:25.246,0.17920,-0.21826,-0.95996;
19:16:25.256,0.18921,-0.22095,-0.97510;
19:16:25.266,0.18750,-0.22485,-0.97925;
19:16:25.276,0.18457,-0.22534,-0.97974;
19:16:25.286,0.18530,-0.22363,-0.97485;
19:16:25.296,0.18066,-0.21973,-0.96948;
19:16:25.306,0.17871,-0.21851,-0.96558;
19:16:25.316,0.18164,-0.22437,-0.96362;
19:16:25.326,0.18140,-0.21948,-0.96362;
19:16:25.336,0.17969,-0.21655,-0.96436;
19:16:25.346,0.17651,-0.21899,-0.96240;
19:16:25.356,0.17993,-0.22144,-0.96387;
19:16:25.366,0.18164,-0.22412,-0.97144;
19:16:25.376,0.17920,-0.22559,-0.97241;
19:16:25.386,0.17993,-0.22778,-0.97729;
19:16:25.396,0.18140,-0.22803,-0.98364;
19:16:25.406,0.18042,-0.22925,-0.97900;
19:16:25.416,0.18164,-0.22900,-0.97852;
19:16:25.426,0.18213,-0.22949,-0.97559;
19:16:25.436,0.17871,-0.22827,-0.96680;
19:16:25.446,0.17773,-0.22900,-0.96265;
19:16:25.456,0.17627,-0.23169,-0.95654;
19:16:25.466,0.17773,-0.23120,-0.96021;
19:16:25.476,0.17627,-0.22974,-0.96362;
19:16:25.486,0.17798,-0.22778,-0.96558;
19:16:25.496,0.17798,-0.22388,-0.96826;
19:16:25.506,0.17236,-0.22339,-0.96582;
19:16:25.516,0.17432,-0.22705,-0.96436;
19:16:25.526,0.18042,-0.22974,-0.96582;
19:16:25.536,0.17871,-0.23145,-0.95947;
19:16:25.546,0.17944,-0.21606,-0.96313;
19:16:25.556,0.18359,-0.21655,-0.97217;
19:16:25.566,0.18164,-0.22241,-0.96509;
19:16:25.576,0.18115,-0.22437,-0.96802;
19:16:25.586,0.17749,-0.22852,-0.97021;
19:16:25.596,0.17480,-0.23047,-0.97119;
19:16:25.606,0.17651,-0.22461,-0.97803;
19:16:25.616,0.18140,-0.22314,-0.97974;
19:16:25.626,0.18506,-0.22363,-0.98267;
19:16:25.636,0.18799,-0.22266,-0.98218;
19:16:25.646,0.18677,-0.22266,-0.97534;
19:16:25.656,0.18042,-0.22070,-0.96582;
19:16:25.666,0.17896,-0.22437,-0.95410;
19:16:25.676,0.17896,-0.22388,-0.94702;
19:16:25.686,0.18115,-0.21631,-0.96021;
19:16:25.696,0.18823,-0.21802,-0.97070;
19:16:25.706,0.19019,-0.22339,-0.97290;
19:16:25.716,0.18555,-0.22314,-0.97363;
19:16:25.726,0.18433,-0.22046,-0.97021;
19:16:25.736,0.17969,-0.22144,-0.96289;
19:16:25.746,0.18433,-0.22192,-0.96216;
19:16:25.756,0.18994,-0.22314,-0.96460;
19:16:25.766,0.18774,-0.22168,-0.97144;
19:16:25.776,0.18701,-0.21777,-0.97144;
19:16:25.786,0.18701,-0.22241,-0.97119;
19:16:25.796,0.18677,-0.22144,-0.97339;
19:16:25.806,0.18384,-0.22217,-0.97144;
19:16:25.816,0.18188,-0.22461,-0.97241;
19:16:25.826,0.18091,-0.22485,-0.97559;
19:16:25.836,0.18262,-0.22705,-0.97290;
19:16:25.846,0.18604,-0.22485,-0.98877;
19:16:25.856,0.19409,-0.22949,-0.98877;
19:16:25.866,0.18628,-0.23096,-0.97437;
19:16:25.876,0.18726,-0.22803,-0.97778;
19:16:25.886,0.19092,-0.22754,-0.97974;
19:16:25.896,0.18896,-0.22681,-0.97681;
19:16:25.906,0.18604,-0.22559,-0.96948;
19:16:25.916,0.18506,-0.22852,-0.96606;
19:16:25.926,0.18921,-0.22949,-0.96777;
19:16:25.936,0.18994,-0.23022,-0.96362;
19:16:25.946,0.18237,-0.22632,-0.95483;
19:16:25.956,0.18213,-0.22144,-0.95142;
19:16:25.966,0.18384,-0.21851,-0.95728;
19:16:25.976,0.18652,-0.21606,-0.95776;
19:16:25.986,0.18799,-0.21655,-0.96143;
19:16:25.996,0.19043,-0.21704,-0.97461;
19:16:26.006,0.19482,-0.21851,-0.97729;
19:16:26.016,0.18994,-0.21558,-0.97144;
19:16:26.026,0.18457,-0.21533,-0.96802;
19:16:26.036,0.18604,-0.21997,-0.96484;
19:16:26.046,0.18481,-0.22168,-0.96313;
19:16:26.056,0.18677,-0.21777,-0.96680;
19:16:26.066,0.18652,-0.21606,-0.97485;
19:16:26.076,0.18506,-0.22339,-0.97900;
19:16:26.086,0.18701,-0.22949,-0.97876;
19:16:26.096,0.18457,-0.22803,-0.97656;
19:16:26.106,0.18042,-0.22412,-0.97363;
19:16:26.116,0.18188,-0.22144,-0.96704;
19:16:26.126,0.18628,-0.22095,-0.97070;
19:16:26.136,0.18726,-0.21899,-0.97412;
19:16:26.146,0.18872,-0.21924,-0.97583;
19:16:26.156,0.18872,-0.22021,-0.97705;
19:16:26.166,0.18774,-0.22607,-0.96509;
19:16:26.176,0.19019,-0.20850,-0.95923;
19:16:26.186,0.19067,-0.20581,-0.96631;
19:16:26.196,0.19019,-0.20142,-0.96851;
19:16:26.206,0.19287,-0.19946,-0.97021;
19:16:26.216,0.19653,-0.20483,-0.97070;
19:16:26.226,0.19214,-0.20728,-0.96826;
19:16:26.236,0.18530,-0.20801,-0.96216;
19:16:26.246,0.18115,-0.21289,-0.96143;
19:16:26.256,0.17871,-0.21338,-0.96973;
19:16:26.266,0.18579,-0.21143,-0.98047;
19:16:26.276,0.19287,-0.21118,-0.98657;
19:16:26.286,0.19019,-0.21313,-0.97827;
19:16:26.296,0.18750,-0.21216,-0.96411;
19:16:26.306,0.17871,-0.21289,-0.95117;
19:16:26.316,0.17749,-0.21973,-0.95068;
19:16:26.326,0.18481,-0.22510,-0.96143;
19:16:26.336,0.18433,-0.22974,-0.96753;
19:16:26.346,0.17993,-0.22852,-0.97485;
19:16:26.356,0.18066,-0.22363,-0.98364;
19:16:26.366,0.18237,-0.22510,-0.98535;
19:16:26.376,0.18237,-0.22656,-0.97998;
19:16:26.386,0.18213,-0.22485,-0.97217;
19:16:26.396,0.18066,-0.22705,-0.96362;
19:16:26.406,0.18262,-0.22290,-0.96777;
19:16:26.416,0.18457,-0.21558,-0.97583;
19:16:26.426,0.18677,-0.21216,-0.97778;
19:16:26.436,0.18945,-0.20947,-0.98120;
19:16:26.446,0.18726,-0.20483,-0.97998;
19:16:26.456,0.19385,-0.21265,-0.96729;
19:16:26.466,0.19580,-0.21265,-0.95166;
19:16:26.476,0.19238,-0.20020,-0.93530;
19:16:26.486,0.20044,-0.18945,-0.92236;
19:16:26.496,0.18799,-0.17603,-0.90649;
19:16:26.506,0.17700,-0.17578,-0.90918;
19:16:26.516,0.18237,-0.19092,-0.91870;
19:16:26.526,0.17456,-0.20557,-0.91675;
19:16:26.536,0.16479,-0.21606,-0.92017;
19:16:26.546,0.16284,-0.22900,-0.92163;
19:16:26.556,0.16284,-0.23828,-0.91602;
19:16:26.566,0.15186,-0.24731,-0.91431;
19:16:26.576,0.14502,-0.27612,-0.92578;
19:16:26.586,0.16138,-0.32080,-0.94385;
19:16:26.596,0.20923,-0.35962,-0.96484;
19:16:26.606,0.20361,-0.41284,-0.98438;
19:16:26.616,0.25635,-0.37451,-1.00952;
19:16:26.626,0.33374,-0.25269,-0.98657;
19:16:26.636,0.26929,-0.26221,-0.94238;
19:16:26.646,0.23340,-0.30151,-0.91846;
19:16:26.656,0.25879,-0.32739,-0.89160;
19:16:26.666,0.26636,-0.35986,-0.87671;
19:16:26.676,0.25586,-0.34155,-0.85645;
19:16:26.686,0.25195,-0.29614,-0.85986;
19:16:26.696,0.26831,-0.25757,-0.88721;
19:16:26.706,0.29761,-0.24487,-0.91577;
19:16:26.716,0.31421,-0.22583,-0.92871;
19:16:26.726,0.30786,-0.21484,-0.94092;
19:16:26.736,0.28613,-0.18359,-0.93457;
19:16:26.746,0.29370,-0.24365,-0.93506;
19:16:26.756,0.31934,-0.32861,-0.95190;
19:16:26.766,0.32373,-0.31543,-0.98682;
19:16:26.776,0.31885,-0.23950,-1.05054;
19:16:26.786,0.32178,-0.18335,-1.08032;
19:16:26.796,0.31396,-0.18530,-1.07471;
19:16:26.806,0.28784,-0.17896,-1.05835;
19:16:26.816,0.25586,-0.24707,-1.00537;
19:16:26.826,0.28394,-0.13159,-1.06641;
19:16:26.836,0.30420,-0.06958,-1.09644;
19:16:26.846,0.30371,-0.08447,-1.08447;
19:16:26.856,0.29199,-0.10352,-1.06909;
19:16:26.866,0.27881,-0.10889,-1.04688;
19:16:26.876,0.27686,-0.12305,-1.03613;
19:16:26.886,0.27979,-0.12866,-1.02930;
19:16:26.896,0.28638,-0.10913,-1.04126;
19:16:26.906,0.29370,-0.06372,-1.05103;
19:16:26.916,0.29297,-0.02832,-1.04712;
19:16:26.926,0.28784,-0.04761,-1.03442;
19:16:26.936,0.28101,-0.10278,-1.00928;
19:16:26.946,0.27563,-0.13452,-0.99585;
19:16:26.956,0.27368,-0.14380,-0.99268;
19:16:26.966,0.27417,-0.14893,-0.98999;
19:16:26.976,0.27246,-0.16357,-0.97803;
19:16:26.986,0.26660,-0.16992,-0.95850;
19:16:26.996,0.26099,-0.14014,-0.94238;
19:16:27.006,0.25415,-0.13647,-0.93481;
19:16:27.016,0.24976,-0.16016,-0.93506;
19:16:27.026,0.25293,-0.17676,-0.94507;
19:16:27.036,0.25391,-0.20483,-0.94238;
19:16:27.046,0.24805,-0.22363,-0.93262;
19:16:27.056,0.24316,-0.23120,-0.92212;
19:16:27.066,0.24463,-0.22656,-0.91089;
19:16:27.076,0.24561,-0.21655,-0.91772;
19:16:27.086,0.24658,-0.21973,-0.92090;
19:16:27.096,0.24121,-0.22388,-0.92871;
19:16:27.106,0.23926,-0.22632,-0.93970;
19:16:27.116,0.24023,-0.23828,-0.94165;
19:16:27.126,0.22803,-0.25635,-0.93579;
19:16:27.136,0.21509,-0.26831,-0.94019;
19:16:27.146,0.21631,-0.28345,-0.94092;
19:16:27.156,0.21924,-0.27930,-0.94116;
19:16:27.166,0.22754,-0.26587,-0.94824;
19:16:27.176,0.23682,-0.27222,-0.95288;
19:16:27.186,0.24463,-0.28540,-0.95996;
19:16:27.196,0.24561,-0.28540,-0.95825;
19:16:27.206,0.24146,-0.29028,-0.95044;
19:16:27.216,0.24219,-0.29321,-0.95239;
19:16:27.226,0.24829,-0.28125,-0.95898;
19:16:27.236,0.24512,-0.28076,-0.95898;
19:16:27.246,0.23267,-0.29053,-0.94238;
19:16:27.256,0.22559,-0.28296,-0.93188;
19:16:27.266,0.22046,-0.27612,-0.92627;
19:16:27.276,0.21558,-0.27881,-0.92188;
19:16:27.286,0.21436,-0.27515,-0.91943;
19:16:27.296,0.20776,-0.27734,-0.90479;
19:16:27.306,0.19897,-0.28003,-0.88892;
19:16:27.316,0.18726,-0.28174,-0.87329;
19:16:27.326,0.18237,-0.27197,-0.87451;
19:16:27.336,0.18994,-0.25146,-0.88843;
19:16:27.346,0.20068,-0.24219,-0.90625;
19:16:27.356,0.20874,-0.23462,-0.91821;
19:16:27.366,0.21021,-0.22827,-0.91064;
19:16:27.376,0.21118,-0.23267,-0.90308;
19:16:27.386,0.21606,-0.23584,-0.90381;
19:16:27.396,0.22339,-0.23779,-0.90967;
19:16:27.406,0.22412,-0.24463,-0.91577;
19:16:27.416,0.22168,-0.24048,-0.93628;
19:16:27.426,0.23315,-0.23315,-0.96436;
19:16:27.436,0.24561,-0.23047,-0.98657;
19:16:27.446,0.24658,-0.22632,-1.00317;
19:16:27.456,0.22974,-0.23511,-1.00269;
19:16:27.466,0.22021,-0.24146,-0.98364;
19:16:27.476,0.22412,-0.23315,-0.98193;
19:16:27.486,0.23145,-0.24194,-0.99414;
19:16:27.496,0.24097,-0.24194,-1.00586;
19:16:27.506,0.24487,-0.24121,-1.00342;
19:16:27.516,0.23755,-0.24634,-0.99121;
19:16:27.526,0.23657,-0.25000,-0.97534;
19:16:27.536,0.23901,-0.24292,-0.96704;
19:16:27.546,0.23828,-0.23193,-0.96191;
19:16:27.556,0.24707,-0.23120,-0.95996;
19:16:27.566,0.25171,-0.23755,-0.96240;
19:16:27.576,0.25073,-0.22998,-0.97314;
19:16:27.586,0.25195,-0.22949,-0.97388;
19:16:27.596,0.25562,-0.24316,-0.97412;
19:16:27.606,0.25562,-0.23706,-0.97510;
19:16:27.616,0.25610,-0.22900,-0.97559;
19:16:27.626,0.25488,-0.23633,-0.97461;
19:16:27.636,0.25098,-0.24097,-0.97314;
19:16:27.646,0.25854,-0.23022,-0.98584;
19:16:27.656,0.26611,-0.22510,-0.99536;
19:16:27.666,0.26831,-0.23511,-0.99902;
19:16:27.676,0.26660,-0.24023,-0.99438;
19:16:27.686,0.25806,-0.23560,-0.98145;
19:16:27.696,0.25415,-0.23291,-0.97363;
19:16:27.706,0.25049,-0.23730,-0.97339;
19:16:27.716,0.24731,-0.23389,-0.96631;
19:16:27.726,0.24316,-0.22925,-0.96191;
19:16:27.736,0.24707,-0.23340,-0.96655;
19:16:27.746,0.25537,-0.23560,-0.96973;
19:16:27.756,0.25659,-0.23608,-0.96191;
19:16:27.766,0.23193,-0.29053,-0.89771;
19:16:27.776,0.22485,-0.31665,-0.86426;
19:16:27.786,0.22339,-0.33032,-0.84937;
19:16:27.796,0.22998,-0.33423,-0.83765;
19:16:27.806,0.24194,-0.33398,-0.84302;
19:16:27.816,0.25708,-0.33472,-0.86182;
19:16:27.826,0.26660,-0.36328,-0.86475;
19:16:27.836,0.26465,-0.41431,-0.85571;
19:16:27.846,0.26123,-0.43579,-0.85938;
19:16:27.856,0.26685,-0.42090,-0.88159;
19:16:27.866,0.27661,-0.41504,-0.89136;
19:16:27.876,0.27979,-0.39185,-0.88843;
19:16:27.886,0.27563,-0.37085,-0.88818;
19:16:27.896,0.27490,-0.38135,-0.88257;
19:16:27.906,0.28052,-0.38599,-0.88428;
19:16:27.916,0.30127,-0.35254,-0.93481;
19:16:27.926,0.32690,-0.30127,-0.98755;
19:16:27.936,0.34058,-0.30615,-0.99878;
19:16:27.946,0.33740,-0.32935,-0.98657;
19:16:27.956,0.32446,-0.33862,-0.95459;
19:16:27.966,0.30957,-0.32227,-0.92236;
19:16:27.976,0.29419,-0.27002,-0.91675;
19:16:27.986,0.29126,-0.23608,-0.94214;
19:16:27.996,0.29932,-0.19971,-0.98511;
19:16:28.006,0.31494,-0.18921,-0.99438;
19:16:28.016,0.31665,-0.20898,-0.96411;
19:16:28.026,0.30103,-0.22681,-0.92285;
19:16:28.036,0.29199,-0.21826,-0.89624;
19:16:28.046,0.29858,-0.19775,-0.88940;
19:16:28.056,0.31616,-0.17480,-0.90747;
19:16:28.066,0.34326,-0.14648,-0.93848;
19:16:28.076,0.37915,-0.13354,-0.92554;
19:16:28.086,0.37305,-0.14087,-0.88794;
19:16:28.096,0.36328,-0.14185,-0.85693;
19:16:28.106,0.35083,-0.11768,-0.85034;
19:16:28.116,0.34912,-0.08228,-0.87158;
19:16:28.126,0.35107,-0.06909,-0.88647;
19:16:28.136,0.34888,-0.08789,-0.88867;
19:16:28.146,0.33472,-0.10791,-0.87402;
19:16:28.156,0.31641,-0.11914,-0.85327;
19:16:28.166,0.30127,-0.15454,-0.83228;
19:16:28.176,0.29126,-0.20142,-0.81812;
19:16:28.186,0.29150,-0.23584,-0.81299;
19:16:28.196,0.30884,-0.23730,-0.83398;
19:16:28.206,0.33276,-0.20874,-0.87183;
19:16:28.216,0.35767,-0.20435,-0.89771;
19:16:28.226,0.36719,-0.23364,-0.90503;
19:16:28.236,0.35400,-0.26733,-0.88770;
19:16:28.246,0.33716,-0.28198,-0.87061;
19:16:28.256,0.33374,-0.27563,-0.87500;
19:16:28.266,0.34131,-0.27148,-0.88867;
19:16:28.276,0.34912,-0.28662,-0.91113;
19:16:28.286,0.35059,-0.28931,-0.93457;
19:16:28.296,0.34546,-0.27612,-0.95044;
19:16:28.306,0.33545,-0.24829,-0.96655;
19:16:28.316,0.32617,-0.20557,-1.00049;
19:16:28.326,0.31738,-0.22583,-1.01367;
19:16:28.336,0.30786,-0.23682,-1.00732;
19:16:28.346,0.29688,-0.23779,-1.00024;
19:16:28.356,0.30835,-0.20996,-1.01416;
19:16:28.366,0.32227,-0.16187,-1.05591;
19:16:28.376,0.35620,-0.14746,-1.08008;
19:16:28.386,0.38672,-0.19116,-1.06177;
19:16:28.396,0.39624,-0.21826,-1.04028;
19:16:28.406,0.40210,-0.24097,-1.01196;
19:16:28.416,0.63867,-0.51294,-0.75195;
19:16:28.426,0.67773,-0.54932,-0.74072;
19:16:28.436,0.73267,-0.60620,-0.72705;
19:16:28.446,0.76172,-0.62695,-0.72729;
19:16:28.456,0.77783,-0.62939,-0.72021;
19:16:28.466,0.79443,-0.61035,-0.68384;
19:16:28.476,0.81860,-0.57104,-0.65942;
19:16:28.486,0.84399,-0.54761,-0.67334;
19:16:28.496,0.87109,-0.54053,-0.70532;
19:16:28.506,0.88818,-0.54395,-0.73926;
19:16:28.516,0.89038,-0.54297,-0.76123;
19:16:28.526,0.88477,-0.52417,-0.77197;
19:16:28.536,0.88867,-0.49609,-0.79175;
19:16:28.546,0.89868,-0.45898,-0.81299;
19:16:28.556,0.90527,-0.41260,-0.82788;
19:16:28.566,0.90747,-0.35864,-0.83252;
19:16:28.576,0.88477,-0.29761,-0.83740;
19:16:28.586,0.85498,-0.22754,-0.84570;
19:16:28.596,0.83545,-0.16602,-0.91455;
19:16:28.606,0.78418,0.02100,-0.95508;
19:16:28.616,0.72266,0.11865,-0.90967;
19:16:28.626,0.65894,0.13623,-0.87231;
19:16:28.636,0.60620,0.11621,-0.81787;
19:16:28.646,0.54321,0.06494,-0.74487;
19:16:28.656,0.49146,0.03979,-0.66455;
19:16:28.666,0.45947,0.02222,-0.59204;
19:16:28.676,0.42700,0.01636,-0.53320;
19:16:28.686,0.42139,0.05078,-0.46777;
19:16:28.696,0.42456,0.10571,-0.42456;
19:16:28.706,0.41504,0.19092,-0.41040;
19:16:28.716,0.42065,0.29272,-0.39844;
19:16:28.726,0.40991,0.39063,-0.40430;
19:16:28.736,0.41602,0.48389,-0.42505;
19:16:28.746,0.43555,0.57007,-0.43579;
19:16:28.756,0.42017,0.70508,-0.42651;
19:16:28.766,0.42310,0.81812,-0.39185;
19:16:28.776,0.43359,0.86279,-0.40479;
19:16:28.786,0.44702,0.92944,-0.45239;
19:16:28.796,0.47412,1.00366,-0.50903;
19:16:28.806,0.49951,1.02954,-0.57739;
19:16:28.816,0.51538,0.98096,-0.61890;
19:16:28.826,0.52881,0.90723,-0.60889;
19:16:28.836,0.54956,0.83887,-0.54858;
19:16:28.846,0.57568,0.76245,-0.54272;
19:16:28.856,0.57642,0.72217,-0.56055;
19:16:28.866,0.58179,0.69116,-0.58252;
19:16:28.876,0.57544,0.67505,-0.59595;
19:16:28.886,0.57471,0.64551,-0.61865;
19:16:28.896,0.59546,0.61133,-0.64624;
19:16:28.906,0.68018,0.46753,-0.64893;
19:16:28.916,0.70386,0.35889,-0.66309;
19:16:28.926,0.74219,0.31104,-0.69336;
19:16:28.936,0.78931,0.24243,-0.76074;
19:16:28.946,0.82886,0.11548,-0.85181;
19:16:28.956,0.84473,-0.00513,-0.94238;
19:16:28.966,0.83276,0.00049,-0.97144;
19:16:28.976,0.82300,0.10815,-0.95483;
19:16:28.986,0.80469,0.23877,-0.89941;
19:16:28.996,0.80371,0.28320,-0.86084;
19:16:29.006,0.80249,0.29858,-0.83423;
19:16:29.016,0.79077,0.35889,-0.80249;
19:16:29.026,0.75171,0.38989,-0.77319;
19:16:29.036,0.69580,0.41577,-0.74121;
19:16:29.046,0.67188,0.41772,-0.73706;
19:16:29.056,0.64893,0.38965,-0.72095;
19:16:29.066,0.62500,0.36450,-0.68018;
19:16:29.076,0.60010,0.32910,-0.63818;
19:16:29.086,0.58325,0.30029,-0.60425;
19:16:29.096,0.57715,0.32837,-0.58472;
19:16:29.106,0.60107,0.40942,-0.61035;
19:16:29.116,0.63403,0.45117,-0.68262;
19:16:29.126,0.64893,0.44385,-0.73560;
19:16:29.136,0.64551,0.42700,-0.75049;
19:16:29.146,0.62085,0.45410,-0.69800;
19:16:29.156,0.62695,0.42920,-0.66235;
19:16:29.166,0.64502,0.41040,-0.63599;
19:16:29.176,0.65088,0.41748,-0.60645;
19:16:29.186,0.63721,0.42847,-0.57666;
19:16:29.196,0.62891,0.40454,-0.54077;
19:16:29.206,0.62476,0.43848,-0.66479;
19:16:29.216,0.74951,0.50781,-0.71753;
19:16:29.226,0.76929,0.43286,-0.63647;
19:16:29.236,0.75806,0.37329,-0.61792;
19:16:29.246,0.73315,0.35864,-0.61938;
19:16:29.256,0.72559,0.38672,-0.62720;
19:16:29.266,0.72534,0.39771,-0.59985;
19:16:29.276,0.72266,0.38281,-0.56250;
19:16:29.286,0.73120,0.37427,-0.55273;
19:16:29.296,0.74292,0.38770,-0.55664;
19:16:29.306,0.74487,0.44336,-0.54834;
19:16:29.316,0.74731,0.50146,-0.53760;
19:16:29.326,0.76196,0.51367,-0.52661;
19:16:29.336,0.76563,0.48608,-0.51392;
19:16:29.346,0.76245,0.44019,-0.52100;
19:16:29.356,0.75024,0.40137,-0.54810;
19:16:29.366,0.72876,0.38623,-0.56250;
19:16:29.376,0.72363,0.38550,-0.55811;
19:16:29.386,0.73828,0.35767,-0.54419;
19:16:29.396,0.75659,0.32251,-0.53003;
19:16:29.406,0.76343,0.32935,-0.52734;
19:16:29.416,0.76367,0.35205,-0.52539;
19:16:29.426,0.76855,0.37695,-0.51099;
19:16:29.436,0.77979,0.41235,-0.50269;
19:16:29.446,0.79053,0.44702,-0.51953;
19:16:29.456,0.78394,0.46777,-0.53931;
19:16:29.466,0.76343,0.47119,-0.54175;
19:16:29.476,0.73608,0.47559,-0.53174;
19:16:29.486,0.71948,0.47949,-0.51416;
19:16:29.496,0.73633,0.48730,-0.49634;
19:16:29.506,0.75562,0.50317,-0.48999;
19:16:29.516,0.76538,0.52637,-0.48438;
19:16:29.526,0.77051,0.54712,-0.50830;
19:16:29.536,0.73755,0.55225,-0.53223;
19:16:29.546,0.74219,0.53369,-0.56299;
19:16:29.556,0.74976,0.49731,-0.54395;
19:16:29.566,0.74219,0.48804,-0.51050;
19:16:29.576,0.73706,0.47827,-0.48608;
19:16:29.586,0.72168,0.47778,-0.45801;
19:16:29.596,0.71582,0.50024,-0.45557;
19:16:29.606,0.73706,0.53394,-0.48804;
19:16:29.616,0.75317,0.55054,-0.51807;
19:16:29.626,0.75781,0.55640,-0.54761;
19:16:29.636,0.76270,0.56104,-0.55469;
19:16:29.646,0.75879,0.53394,-0.54639;
19:16:29.656,0.74194,0.49414,-0.53174;
19:16:29.666,0.72485,0.45215,-0.49487;
19:16:29.676,0.72949,0.44678,-0.45850;
19:16:29.686,0.75293,0.46851,-0.43921;
19:16:29.696,0.77002,0.48535,-0.43213;
19:16:29.706,0.77686,0.50415,-0.43677;
19:16:29.716,0.77710,0.50684,-0.45239;
19:16:29.726,0.77686,0.48950,-0.45459;
19:16:29.736,0.77319,0.47583,-0.45923;
19:16:29.746,0.76440,0.46802,-0.47485;
19:16:29.756,0.74756,0.46411,-0.48779;
19:16:29.766,0.73438,0.47119,-0.48462;
19:16:29.776,0.74341,0.47168,-0.47632;
19:16:29.786,0.75220,0.48950,-0.48486;
19:16:29.796,0.74609,0.51953,-0.49414;
19:16:29.806,0.74561,0.54688,-0.49878;
19:16:29.816,0.75513,0.55615,-0.50317;
19:16:29.826,0.76074,0.55762,-0.52197;
19:16:29.836,0.74268,0.56201,-0.51929;
19:16:29.846,0.70654,0.54004,-0.53198;
19:16:29.856,0.73901,0.52319,-0.58276;
19:16:29.866,0.74121,0.51147,-0.59131;
19:16:29.876,0.72949,0.49976,-0.56812;
19:16:29.886,0.71606,0.49829,-0.52734;
19:16:29.896,0.71704,0.49634,-0.48804;
19:16:29.906,0.71704,0.50195,-0.47559;
19:16:29.916,0.72559,0.51758,-0.47729;
19:16:29.926,0.74683,0.53857,-0.49072;
19:16:29.936,0.75830,0.55957,-0.51025;
19:16:29.946,0.75073,0.54321,-0.52393;
19:16:29.956,0.73975,0.50928,-0.54077;
19:16:29.966,0.74072,0.48389,-0.53638;
19:16:29.976,0.75317,0.46094,-0.52759;
19:16:29.986,0.76099,0.42188,-0.51465;
19:16:29.996,0.75513,0.40503,-0.50854;
19:16:30.006,0.72363,0.44019,-0.52759;
19:16:30.016,0.70361,0.48926,-0.56421;
19:16:30.026,0.70020,0.51025,-0.60254;
19:16:30.036,0.70630,0.50732,-0.61353;
19:16:30.046,0.71265,0.48853,-0.58398;
19:16:30.056,0.72070,0.43091,-0.57324;
19:16:30.066,0.73804,0.46094,-0.52100;
19:16:30.076,0.74194,0.46167,-0.50635;
19:16:30.086,0.75806,0.44482,-0.50659;
19:16:30.096,0.75195,0.51050,-0.51660;
19:16:30.106,0.72803,0.56079,-0.53760;
19:16:30.116,0.72461,0.56934,-0.51123;
19:16:30.126,0.72266,0.52075,-0.49609;
19:16:30.136,0.73291,0.47754,-0.44849;
19:16:30.146,0.75488,0.44922,-0.42847;
19:16:30.156,0.77002,0.48633,-0.51538;
19:16:30.166,0.74658,0.53979,-0.55591;
19:16:30.176,0.74146,0.56812,-0.56323;
19:16:30.186,0.72144,0.56299,-0.54688;
19:16:30.196,0.70483,0.52612,-0.52515;
19:16:30.206,0.70117,0.48682,-0.48120;
19:16:30.216,0.71631,0.47144,-0.46118;
19:16:30.226,0.74121,0.47852,-0.44165;
19:16:30.236,0.75781,0.49194,-0.43091;
19:16:30.246,0.77173,0.52441,-0.47119;
19:16:30.256,0.77295,0.54395,-0.49780;
19:16:30.266,0.76563,0.55151,-0.51758;
19:16:30.276,0.74658,0.57227,-0.51440;
19:16:30.286,0.73730,0.56812,-0.49023;
19:16:30.296,0.73022,0.54932,-0.45801;
19:16:30.306,0.73633,0.52563,-0.43066;
19:16:30.316,0.74731,0.50781,-0.44141;
19:16:30.326,0.74585,0.52026,-0.45654;
19:16:30.336,0.74219,0.55542,-0.49194;
19:16:30.346,0.73608,0.57642,-0.54175;
19:16:30.356,0.71997,0.55566,-0.53198;
19:16:30.366,0.70972,0.51758,-0.49341;
19:16:30.376,0.71411,0.48633,-0.44385;
19:16:30.386,0.73389,0.47095,-0.41235;
19:16:30.396,0.75195,0.49951,-0.43262;
19:16:30.406,0.76294,0.54663,-0.45630;
19:16:30.416,0.77173,0.59375,-0.49585;
19:16:30.426,0.76855,0.60889,-0.50415;
19:16:30.436,0.76074,0.57300,-0.46045;
19:16:30.446,0.75342,0.54175,-0.43774;
19:16:30.456,0.74878,0.53027,-0.43481;
19:16:30.466,0.72705,0.58008,-0.47485;
19:16:30.476,0.72192,0.61133,-0.44043;
19:16:30.486,0.71777,0.62183,-0.41943;
19:16:30.496,0.71338,0.64014,-0.40771;
19:16:30.506,0.71118,0.63965,-0.39941;
19:16:30.516,0.70850,0.63403,-0.39819;
19:16:30.526,0.71069,0.63770,-0.40381;
19:16:30.536,0.71899,0.63452,-0.38696;
19:16:30.546,0.73779,0.62476,-0.38013;
19:16:30.556,0.74780,0.60376,-0.39233;
19:16:30.566,0.75146,0.58447,-0.40820;
19:16:30.576,0.74902,0.55493,-0.42163;
19:16:30.586,0.74585,0.52759,-0.41797;
19:16:30.596,0.75171,0.53394,-0.38892;
19:16:30.606,0.75171,0.52930,-0.36963;
19:16:30.616,0.74146,0.51416,-0.37720;
19:16:30.626,0.72705,0.51587,-0.37280;
19:16:30.636,0.72705,0.53809,-0.37085;
19:16:30.646,0.73560,0.55640,-0.40356;
19:16:30.656,0.75122,0.54053,-0.42065;
19:16:30.666,0.76587,0.52808,-0.43652;
19:16:30.676,0.77026,0.52734,-0.44849;
19:16:30.686,0.77222,0.51709,-0.43481;
19:16:30.696,0.77710,0.49683,-0.43652;
19:16:30.706,0.78394,0.50781,-0.39722;
19:16:30.716,0.79688,0.55054,-0.37988;
19:16:30.726,0.79321,0.58911,-0.38892;
19:16:30.736,0.78003,0.61865,-0.39819;
19:16:30.746,0.77368,0.61255,-0.41870;
19:16:30.756,0.75317,0.57764,-0.40894;
19:16:30.766,0.72803,0.57129,-0.38501;
19:16:30.776,0.71729,0.60864,-0.36279;
19:16:30.786,0.69800,0.69702,-0.37964;
19:16:30.796,0.68921,0.66968,-0.39404;
19:16:30.806,0.69507,0.63818,-0.39917;
19:16:30.816,0.71729,0.60449,-0.40845;
19:16:30.826,0.74121,0.57031,-0.42725;
19:16:30.836,0.75610,0.54639,-0.43091;
19:16:30.846,0.75781,0.52539,-0.42896;
19:16:30.856,0.76001,0.52026,-0.42627;
19:16:30.866,0.76563,0.52539,-0.42920;
19:16:30.876,0.77417,0.53394,-0.44556;
19:16:30.886,0.78467,0.53979,-0.45630;
19:16:30.896,0.77588,0.53052,-0.42969;
19:16:30.906,0.75610,0.51050,-0.40723;
19:16:30.916,0.75171,0.51416,-0.39478;
19:16:30.926,0.74878,0.54834,-0.37036;
19:16:30.936,0.74243,0.59302,-0.37158;
19:16:30.946,0.73486,0.60791,-0.38037;
19:16:30.956,0.72217,0.59277,-0.38086;
19:16:30.966,0.70776,0.57275,-0.37939;
19:16:30.976,0.70435,0.55322,-0.37085;
19:16:30.986,0.70801,0.53418,-0.35425;
19:16:30.996,0.71313,0.50879,-0.35107;
19:16:31.006,0.73022,0.48828,-0.35205;
19:16:31.016,0.75342,0.48071,-0.36743;
19:16:31.026,0.76685,0.49390,-0.42041;
19:16:31.036,0.76416,0.50757,-0.44238;
19:16:31.046,0.76123,0.51880,-0.40552;
19:16:31.056,0.74316,0.54224,-0.36377;
19:16:31.066,0.72339,0.55640,-0.34692;
19:16:31.076,0.71899,0.56323,-0.35962;
19:16:31.086,0.72778,0.60547,-0.39380;
19:16:31.096,0.73169,0.65112,-0.40918;
19:16:31.106,0.69580,0.60669,-0.40161;
19:16:31.116,0.74683,0.57764,-0.45117;
19:16:31.126,0.76001,0.56519,-0.44849;
19:16:31.136,0.75708,0.58154,-0.42969;
19:16:31.146,0.74683,0.62231,-0.43213;
19:16:31.156,0.73926,0.65771,-0.45728;
19:16:31.166,0.73779,0.67334,-0.47583;
19:16:31.176,0.73608,0.65967,-0.46680;
19:16:31.186,0.72925,0.62964,-0.44604;
19:16:31.196,0.73071,0.62183,-0.44604;
19:16:31.206,0.73633,0.64990,-0.45557;
19:16:31.216,0.72827,0.66284,-0.45752;
19:16:31.226,0.72144,0.67017,-0.45581;
19:16:31.236,0.72559,0.68506,-0.45117;
19:16:31.246,0.73560,0.67310,-0.45068;
19:16:31.256,0.74243,0.64795,-0.44580;
19:16:31.266,0.74756,0.62134,-0.42773;
19:16:31.276,0.75464,0.61719,-0.44238;
19:16:31.286,0.76245,0.63232,-0.46631;
19:16:31.296,0.75464,0.64136,-0.46460;
19:16:31.306,0.73682,0.62476,-0.45728;
19:16:31.316,0.72656,0.59839,-0.44775;
19:16:31.326,0.72559,0.58154,-0.43750;
19:16:31.336,0.73462,0.57373,-0.42432;
19:16:31.346,0.74487,0.57080,-0.40869;
19:16:31.356,0.74707,0.57251,-0.42236;
19:16:31.366,0.73804,0.58936,-0.45093;
19:16:31.376,0.73218,0.59131,-0.46216;
19:16:31.386,0.72754,0.56299,-0.46387;
19:16:31.396,0.71948,0.51929,-0.47290;
19:16:31.406,0.71655,0.49243,-0.47681;
19:16:31.416,0.75391,0.51367,-0.50049;
19:16:31.426,0.71948,0.48950,-0.47827;
19:16:31.436,0.71289,0.49048,-0.48633;
19:16:31.446,0.70679,0.49512,-0.49121;
19:16:31.456,0.70752,0.50830,-0.48779;
19:16:31.466,0.72412,0.54688,-0.50122;
19:16:31.476,0.74658,0.57935,-0.49561;
19:16:31.486,0.75854,0.55225,-0.47144;
19:16:31.496,0.75024,0.51489,-0.47241;
19:16:31.506,0.74072,0.50488,-0.48096;
19:16:31.516,0.73706,0.51025,-0.49829;
19:16:31.526,0.73779,0.52344,-0.51221;
19:16:31.536,0.74268,0.53979,-0.51392;
19:16:31.546,0.74390,0.54883,-0.50659;
19:16:31.556,0.73047,0.55688,-0.49414;
19:16:31.566,0.72290,0.56860,-0.47998;
19:16:31.576,0.71973,0.57446,-0.46948;
19:16:31.586,0.73853,0.59058,-0.47510;
19:16:31.596,0.76514,0.61792,-0.49658;
19:16:31.606,0.76099,0.60352,-0.50171;
19:16:31.616,0.75830,0.54834,-0.52246;
19:16:31.626,0.73584,0.66724,-0.54346;
19:16:31.636,0.75464,0.96362,-0.57227;
19:16:31.646,0.78076,1.15820,-0.58008;
19:16:31.656,0.78906,1.21680,-0.51855;
19:16:31.666,0.82422,1.19043,-0.50952;
19:16:31.676,0.87524,1.00806,-0.57471;
19:16:31.686,0.91235,0.91724,-0.76831;
19:16:31.696,0.92114,0.91455,-0.85449;
19:16:31.706,0.90625,0.68188,-0.72656;
19:16:31.716,0.87329,0.37280,-0.57715;
19:16:31.726,0.80957,0.16479,-0.47876;
19:16:31.736,0.69604,-0.31372,-0.73169;
19:16:31.746,0.72119,-0.24414,-0.80908;
19:16:31.756,0.74243,-0.22046,-0.84814;
19:16:31.766,0.71045,-0.30347,-0.85815;
19:16:31.776,0.65430,-0.43481,-0.84009;
19:16:31.786,0.60791,-0.50244,-0.82202;
19:16:31.796,0.57300,-0.44482,-0.80713;
19:16:31.806,0.55811,-0.43188,-0.77051;
19:16:31.816,0.56592,-0.49854,-0.74658;
19:16:31.826,0.57959,-0.53345,-0.73804;
19:16:31.836,0.57935,-0.52783,-0.68677;
19:16:31.846,0.56396,-0.50952,-0.62769;
19:16:31.856,0.56055,-0.50293,-0.58911;
19:16:31.866,0.57275,-0.53760,-0.54028;
19:16:31.876,0.55957,-0.55640,-0.49854;
19:16:31.886,0.53857,-0.59619,-0.48340;
19:16:31.896,0.54907,-0.61987,-0.50049;
19:16:31.906,0.56641,-0.62915,-0.52686;
19:16:31.916,0.55273,-0.63452,-0.53271;
19:16:31.926,0.54614,-0.59473,-0.55518;
19:16:31.936,0.53833,-0.59473,-0.56885;
19:16:31.946,0.52271,-0.64526,-0.58032;
19:16:31.956,0.52759,-0.66138,-0.59644;
19:16:31.966,0.52197,-0.61523,-0.57764;
19:16:31.976,0.50195,-0.57910,-0.55005;
19:16:31.986,0.49756,-0.56519,-0.55542;
19:16:31.996,0.49634,-0.59424,-0.55127;
19:16:32.006,0.49048,-0.61572,-0.54517;
19:16:32.016,0.47412,-0.60034,-0.54272;
19:16:32.026,0.44824,-0.61426,-0.53052;
19:16:32.036,0.42212,-0.62988,-0.52222;
19:16:32.046,0.40161,-0.61670,-0.52832;
19:16:32.056,0.37769,-0.63208,-0.59888;
19:16:32.066,0.37183,-0.59180,-0.62866;
19:16:32.076,0.35547,-0.60132,-0.62354;
19:16:32.086,0.34009,-0.62646,-0.60742;
19:16:32.096,0.33521,-0.63574,-0.60400;
19:16:32.106,0.32617,-0.62939,-0.60303;
19:16:32.116,0.31958,-0.62817,-0.62012;
19:16:32.126,0.32642,-0.64282,-0.63989;
19:16:32.136,0.32983,-0.65479,-0.65356;
19:16:32.146,0.32446,-0.65918,-0.67798;
19:16:32.156,0.32422,-0.64722,-0.70166;
19:16:32.166,0.31885,-0.65405,-0.70117;
19:16:32.176,0.30200,-0.67334,-0.68311;
19:16:32.186,0.28271,-0.64795,-0.66675;
19:16:32.196,0.27124,-0.63086,-0.65405;
19:16:32.206,0.27271,-0.62451,-0.65576;
19:16:32.216,0.27344,-0.61426,-0.67554;
19:16:32.226,0.27539,-0.59741,-0.69995;
19:16:32.236,0.27710,-0.58936,-0.71313;
19:16:32.246,0.27271,-0.60596,-0.71777;
19:16:32.256,0.26587,-0.62720,-0.71216;
19:16:32.266,0.26123,-0.64600,-0.71118;
19:16:32.276,0.26318,-0.63354,-0.71387;
19:16:32.286,0.26343,-0.59839,-0.71704;
19:16:32.296,0.26465,-0.59204,-0.71509;
19:16:32.306,0.26440,-0.60840,-0.70630;
19:16:32.316,0.26196,-0.61060,-0.70923;
19:16:32.326,0.26538,-0.60938,-0.71948;
19:16:32.336,0.26978,-0.60010,-0.73877;
19:16:32.346,0.27368,-0.58911,-0.75342;
19:16:32.356,0.27197,-0.58398,-0.75562;
19:16:32.366,0.27905,-0.59937,-0.76929;
19:16:32.376,0.27441,-0.58691,-0.75146;
19:16:32.386,0.27515,-0.58911,-0.74756;
19:16:32.396,0.27173,-0.60645,-0.73901;
19:16:32.406,0.27148,-0.60791,-0.74512;
19:16:32.416,0.27466,-0.60620,-0.75830;
19:16:32.426,0.27588,-0.60962,-0.76685;
19:16:32.436,0.27588,-0.60864,-0.76831;
19:16:32.446,0.27319,-0.60791,-0.76245;
19:16:32.456,0.27563,-0.61426,-0.76123;
19:16:32.466,0.27466,-0.63062,-0.75000;
19:16:32.476,0.26758,-0.64307,-0.73853;
19:16:32.486,0.26782,-0.62744,-0.73755;
19:16:32.496,0.27222,-0.60327,-0.73340;
19:16:32.506,0.27417,-0.61279,-0.73242;
19:16:32.516,0.27734,-0.61890,-0.74219;
19:16:32.526,0.28174,-0.61621,-0.74683;
19:16:32.536,0.28394,-0.62354,-0.75000;
19:16:32.546,0.28540,-0.62598,-0.75708;
19:16:32.556,0.28589,-0.62964,-0.76025;
19:16:32.566,0.31616,-0.61548,-0.78101;
19:16:32.576,0.31372,-0.62280,-0.77295;
19:16:32.586,0.30981,-0.60107,-0.76416;
19:16:32.596,0.30518,-0.61230,-0.74854;
19:16:32.606,0.30640,-0.62036,-0.73340;
19:16:32.616,0.30884,-0.65112,-0.74683;
19:16:32.626,0.31348,-0.65039,-0.77173;
19:16:32.636,0.31201,-0.62915,-0.79004;
19:16:32.646,0.30225,-0.60962,-0.79883;
19:16:32.656,0.29590,-0.59985,-0.81030;
19:16:32.666,0.30078,-0.58398,-0.81104;
19:16:32.676,0.30078,-0.56641,-0.81274;
19:16:32.686,0.28638,-0.55103,-0.81616;
19:16:32.696,0.27197,-0.54126,-0.80811;
19:16:32.706,0.26782,-0.52246,-0.82397;
19:16:32.716,0.26904,-0.48511,-0.84692;
19:16:32.726,0.27100,-0.47827,-0.85693;
19:16:32.736,0.26489,-0.47827,-0.86060;
19:16:32.746,0.24756,-0.47290,-0.85718;
19:16:32.756,0.23096,-0.47705,-0.86646;
19:16:32.766,0.22510,-0.47900,-0.87744;
19:16:32.776,0.22290,-0.48975,-0.88550;
19:16:32.786,0.22217,-0.47974,-0.88110;
19:16:32.796,0.21387,-0.47852,-0.87012;
19:16:32.806,0.20190,-0.49292,-0.86450;
19:16:32.816,0.19336,-0.48999,-0.85986;
19:16:32.826,0.18359,-0.46802,-0.85107;
19:16:32.836,0.18115,-0.45386,-0.86060;
19:16:32.846,0.18213,-0.45776,-0.87769;
19:16:32.856,0.18213,-0.44165,-0.87915;
19:16:32.866,0.18188,-0.43726,-0.87378;
19:16:32.876,0.18481,-0.46289,-0.87305;
19:16:32.886,0.18579,-0.46362,-0.87622;
19:16:32.896,0.18408,-0.47754,-0.87354;
19:16:32.906,0.17456,-0.50732,-0.85864;
19:16:32.916,0.14917,-0.46582,-0.85254;
19:16:32.926,0.17432,-0.49536,-0.89917;
19:16:32.936,0.17114,-0.49365,-0.89990;
19:16:32.946,0.16187,-0.50977,-0.87305;
19:16:32.956,0.15747,-0.52246,-0.85254;
19:16:32.966,0.15088,-0.51880,-0.83960;
19:16:32.976,0.14746,-0.52368,-0.83325;
19:16:32.986,0.14551,-0.52124,-0.83521;
19:16:32.996,0.14355,-0.49805,-0.83740;
19:16:33.006,0.13159,-0.48047,-0.83643;
19:16:33.016,0.12891,-0.48584,-0.84180;
19:16:33.026,0.13745,-0.49243,-0.83862;
19:16:33.036,0.14111,-0.48364,-0.84253;
19:16:33.046,0.14282,-0.46899,-0.84033;
19:16:33.056,0.14307,-0.47217,-0.83301;
19:16:33.066,0.14282,-0.50464,-0.83081;
19:16:33.076,0.14160,-0.53931,-0.82593;
19:16:33.086,0.14087,-0.56738,-0.82227;
19:16:33.096,0.13818,-0.56689,-0.81787;
19:16:33.106,0.13672,-0.54565,-0.82324;
19:16:33.116,0.13745,-0.54907,-0.82739;
19:16:33.126,0.14160,-0.54321,-0.84424;
19:16:33.136,0.14990,-0.50220,-0.86108;
19:16:33.146,0.14819,-0.48267,-0.85181;
19:16:33.156,0.14771,-0.51343,-0.83936;
19:16:33.166,0.15063,-0.55371,-0.82739;
19:16:33.176,0.14648,-0.56250,-0.80322;
19:16:33.186,0.14087,-0.57153,-0.79077;
19:16:33.196,0.14478,-0.58228,-0.79712;
19:16:33.206,0.14795,-0.56519,-0.80005;
19:16:33.216,0.14331,-0.56641,-0.80005;
19:16:33.226,0.13818,-0.57788,-0.79297;
19:16:33.236,0.14575,-0.57544,-0.79736;
19:16:33.246,0.14722,-0.59961,-0.79297;
19:16:33.256,0.14478,-0.60571,-0.79614;
19:16:33.266,0.14307,-0.61401,-0.79272;
19:16:33.276,0.14355,-0.60425,-0.79590;
19:16:33.286,0.14478,-0.59009,-0.80420;
19:16:33.296,0.15088,-0.59521,-0.81714;
19:16:33.306,0.15674,-0.59570,-0.82983;
19:16:33.316,0.16260,-0.57788,-0.83691;
19:16:33.326,0.16113,-0.57397,-0.82544;
19:16:33.336,0.16113,-0.58789,-0.81396;
19:16:33.346,0.16919,-0.60962,-0.81567;
19:16:33.356,0.16797,-0.63110,-0.81372;
19:16:33.366,0.16504,-0.62061,-0.81836;
19:16:33.376,0.16406,-0.59814,-0.83008;
19:16:33.386,0.16602,-0.59937,-0.83569;
19:16:33.396,0.16577,-0.60425,-0.83618;
19:16:33.406,0.16553,-0.60913,-0.83521;
19:16:33.416,0.16187,-0.60571,-0.81348;
19:16:33.426,0.15186,-0.59082,-0.78979;
19:16:33.436,0.15405,-0.61182,-0.77783;
19:16:33.446,0.15771,-0.64111,-0.77441;
19:16:33.456,0.15576,-0.62793,-0.78833;
19:16:33.466,0.15405,-0.60889,-0.79199;
19:16:33.476,0.15088,-0.60742,-0.79419;
19:16:33.486,0.15527,-0.60181,-0.79614;
19:16:33.496,0.15601,-0.59961,-0.78979;
19:16:33.506,0.15259,-0.60010,-0.78735;
19:16:33.516,0.15088,-0.60205,-0.78174;
19:16:33.526,0.14868,-0.60596,-0.77905;
19:16:33.536,0.14746,-0.59839,-0.77075;
19:16:33.546,0.17017,-0.60156,-0.80737;
19:16:33.556,0.17188,-0.59644,-0.82007;
19:16:33.566,0.17065,-0.58325,-0.81689;
19:16:33.576,0.16943,-0.58838,-0.79956;
19:16:33.586,0.16699,-0.58594,-0.78589;
19:16:33.596,0.16992,-0.59033,-0.78564;
19:16:33.606,0.16895,-0.59668,-0.78906;
19:16:33.616,0.16675,-0.59473,-0.79639;
19:16:33.626,0.17188,-0.59473,-0.79663;
19:16:33.636,0.16895,-0.59790,-0.78540;
19:16:33.646,0.16479,-0.59424,-0.78027;
19:16:33.656,0.16504,-0.59497,-0.77295;
19:16:33.666,0.16626,-0.59814,-0.76978;
19:16:33.676,0.17725,-0.59619,-0.77954;
19:16:33.686,0.18896,-0.59888,-0.78955;
19:16:33.696,0.19141,-0.59668,-0.79468;
19:16:33.706,0.18359,-0.59668,-0.79395;
19:16:33.716,0.17896,-0.60156,-0.78760;
19:16:33.726,0.17969,-0.61279,-0.78589;
19:16:33.736,0.17920,-0.62476,-0.78076;
19:16:33.746,0.17822,-0.62769,-0.78345;
19:16:33.756,0.18652,-0.61377,-0.79492;
19:16:33.766,0.19360,-0.60254,-0.80566;
19:16:33.776,0.19067,-0.60669,-0.81494;
19:16:33.786,0.18970,-0.60498,-0.81299;
19:16:33.796,0.18555,-0.60986,-0.81104;
19:16:33.806,0.17651,-0.61206,-0.81543;
19:16:33.816,0.17480,-0.61670,-0.81519;
19:16:33.826,0.17480,-0.63135,-0.81396;
19:16:33.836,0.17285,-0.64355,-0.83936;
19:16:33.846,0.15210,-0.52783,-0.78101;
19:16:33.856,0.14917,-0.59448,-0.70923;
19:16:33.866,0.15820,-0.66553,-0.66626;
19:16:33.876,0.16504,-0.66431,-0.65186;
19:16:33.886,0.17578,-0.61377,-0.66553;
19:16:33.896,0.19312,-0.59985,-0.70898;
19:16:33.906,0.21118,-0.58911,-0.77100;
19:16:33.916,0.22119,-0.57324,-0.81763;
19:16:33.926,0.22314,-0.57324,-0.84619;
19:16:33.936,0.22363,-0.55591,-0.87134;
19:16:33.946,0.22217,-0.53955,-0.88135;
19:16:33.956,0.21777,-0.55054,-0.86938;
19:16:33.966,0.21045,-0.57056,-0.84888;
19:16:33.976,0.20776,-0.59717,-0.82251;
19:16:33.986,0.20703,-0.60400,-0.79932;
19:16:33.996,0.20923,-0.57886,-0.79639;
19:16:34.006,0.21631,-0.55103,-0.79932;
19:16:34.016,0.21729,-0.56372,-0.81445;
19:16:34.026,0.21875,-0.56763,-0.84204;
19:16:34.036,0.22266,-0.54517,-0.85938;
19:16:34.046,0.21631,-0.54199,-0.85913;
19:16:34.056,0.20850,-0.55078,-0.85449;
19:16:34.066,0.20557,-0.56519,-0.84473;
19:16:34.076,0.20410,-0.57739,-0.83154;
19:16:34.086,0.20117,-0.58301,-0.81396;
19:16:34.096,0.19751,-0.57690,-0.80103;
19:16:34.106,0.19995,-0.57837,-0.79883;
19:16:34.116,0.20581,-0.58716,-0.80444;
19:16:34.126,0.20581,-0.58057,-0.81177;
19:16:34.136,0.20581,-0.56934,-0.82422;
19:16:34.146,0.20679,-0.55566,-0.83154;
19:16:34.156,0.19531,-0.58398,-0.79199;
19:16:34.166,0.19531,-0.58423,-0.77979;
19:16:34.176,0.20313,-0.57959,-0.78345;
19:16:34.186,0.20801,-0.57739,-0.79199;
19:16:34.196,0.21167,-0.57373,-0.80347;
19:16:34.206,0.21289,-0.57080,-0.81177;
19:16:34.216,0.20874,-0.57690,-0.81006;
19:16:34.226,0.20752,-0.58447,-0.80933;
19:16:34.236,0.21338,-0.58154,-0.81128;
19:16:34.246,0.21509,-0.57690,-0.80859;
19:16:34.256,0.21143,-0.58472,-0.80786;
19:16:34.266,0.20923,-0.58789,-0.80371;
19:16:34.276,0.20605,-0.58887,-0.80713;
19:16:34.286,0.20166,-0.58447,-0.80737;
19:16:34.296,0.20264,-0.57153,-0.79346;
19:16:34.306,0.20532,-0.56226,-0.79761;
19:16:34.316,0.21094,-0.56787,-0.81323;
19:16:34.326,0.21338,-0.58203,-0.82324;
19:16:34.336,0.20703,-0.58008,-0.82861;
19:16:34.346,0.20361,-0.57324,-0.82886;
19:16:34.356,0.19897,-0.56714,-0.82813;
19:16:34.366,0.19482,-0.56470,-0.82031;
19:16:34.376,0.19580,-0.57007,-0.81665;
19:16:34.386,0.20044,-0.56763,-0.82813;
19:16:34.396,0.20361,-0.56567,-0.83081;
19:16:34.406,0.19678,-0.56274,-0.81543;
19:16:34.416,0.19043,-0.55811,-0.79858;
19:16:34.426,0.19507,-0.55884,-0.80176;
19:16:34.436,0.19971,-0.56543,-0.83398;
19:16:34.446,0.19653,-0.56616,-0.82373;
19:16:34.456,0.19238,-0.54883,-0.80469;
19:16:34.466,0.19482,-0.56128,-0.80542;
19:16:34.476,0.19434,-0.58301,-0.80298;
19:16:34.486,0.19092,-0.58374,-0.79858;
19:16:34.496,0.18994,-0.57251,-0.79517;
19:16:34.506,0.19019,-0.56885,-0.80054;
19:16:34.516,0.19556,-0.57422,-0.81030;
19:16:34.526,0.19775,-0.58008,-0.81665;
19:16:34.536,0.19775,-0.57349,-0.82300;
19:16:34.546,0.20166,-0.56592,-0.82959;
19:16:34.556,0.20020,-0.57861,-0.82129;
19:16:34.566,0.19604,-0.59033,-0.81079;
19:16:34.576,0.19214,-0.58252,-0.80127;
19:16:34.586,0.19092,-0.57202,-0.79492;
19:16:34.596,0.19458,-0.58398,-0.79834;
19:16:34.606,0.19238,-0.58936,-0.80054;
19:16:34.616,0.18872,-0.57861,-0.80518;
19:16:34.626,0.19385,-0.57300,-0.81348;
19:16:34.636,0.19727,-0.57080,-0.82251;
19:16:34.646,0.19751,-0.56714,-0.83130;
19:16:34.656,0.19946,-0.55444,-0.83545;
19:16:34.666,0.19727,-0.55591,-0.83105;
19:16:34.676,0.19336,-0.55273,-0.82446;
19:16:34.686,0.18896,-0.54346,-0.81689;
19:16:34.696,0.18799,-0.54932,-0.82056;
19:16:34.706,0.19409,-0.56250,-0.82813;
19:16:34.716,0.19409,-0.57910,-0.82861;
19:16:34.726,0.19043,-0.57178,-0.82813;
19:16:34.736,0.19482,-0.56396,-0.83228;
19:16:34.746,0.19897,-0.57007,-0.83105;
19:16:34.756,0.19897,-0.57373,-0.83276;
19:16:34.766,0.19385,-0.55029,-0.83057;
19:16:34.776,0.19653,-0.58643,-0.82471;
19:16:34.786,0.19775,-0.59131,-0.82373;
19:16:34.796,0.19604,-0.58423,-0.81860;
19:16:34.806,0.19312,-0.58594,-0.81421;
19:16:34.816,0.19482,-0.58447,-0.81958;
19:16:34.826,0.19189,-0.57837,-0.81543;
19:16:34.836,0.19067,-0.57056,-0.81152;
19:16:34.846,0.18823,-0.56396,-0.80664;
19:16:34.856,0.18579,-0.56104,-0.80078;
19:16:34.866,0.18677,-0.56909,-0.79395;
19:16:34.876,0.18652,-0.57324,-0.79785;
19:16:34.886,0.19263,-0.57104,-0.80981;
19:16:34.896,0.19629,-0.58228,-0.81030;
19:16:34.906,0.19385,-0.58008,-0.81470;
19:16:34.916,0.19604,-0.56982,-0.81836;
19:16:34.926,0.19336,-0.56323,-0.81128;
19:16:34.936,0.18726,-0.55518,-0.81006;
19:16:34.946,0.18701,-0.55054,-0.81323;
19:16:34.956,0.18823,-0.56494,-0.81470;
19:16:34.966,0.19214,-0.57300,-0.82568;
19:16:34.976,0.19531,-0.55981,-0.83765;
19:16:34.986,0.19629,-0.55127,-0.84326;
19:16:34.996,0.19556,-0.56372,-0.84570;
19:16:35.006,0.19019,-0.58130,-0.84326;
19:16:35.016,0.18896,-0.58252,-0.83545;
19:16:35.026,0.18750,-0.58521,-0.82715;
19:16:35.036,0.18555,-0.57471,-0.82764;
19:16:35.046,0.19165,-0.57178,-0.83472;
19:16:35.056,0.19946,-0.58545,-0.83838;
19:16:35.066,0.18262,-0.60767,-0.83667;
19:16:35.076,0.17871,-0.59326,-0.85132;
19:16:35.086,0.17188,-0.60596,-0.84741;
19:16:35.096,0.16162,-0.62549,-0.84302;
19:16:35.106,0.15820,-0.63550,-0.83521;
19:16:35.116,0.15454,-0.62988,-0.82471;
19:16:35.126,0.14819,-0.61963,-0.81763;
19:16:35.136,0.14966,-0.59644,-0.82251;
19:16:35.146,0.15356,-0.58472,-0.82666;
19:16:35.156,0.15454,-0.59155,-0.83350;
19:16:35.166,0.14941,-0.58423,-0.85303;
19:16:35.176,0.14429,-0.57544,-0.87622;
19:16:35.186,0.14380,-0.56592,-0.90430;
19:16:35.196,0.14307,-0.54858,-0.94043;
19:16:35.206,0.14087,-0.56372,-0.97119;
19:16:35.216,0.12939,-0.60083,-0.96533;
19:16:35.226,0.09595,-0.61816,-0.91919;
19:16:35.236,0.05176,-0.61353,-0.89282;
19:16:35.246,0.02734,-0.60986,-0.91943;
19:16:35.256,0.02441,-0.64185,-0.94092;
19:16:35.266,0.00488,-0.65210,-0.92725;
19:16:35.276,-0.05957,-0.63330,-0.90503;
19:16:35.286,-0.10400,-0.64185,-0.88599;
19:16:35.296,-0.10400,-0.67798,-0.89893;
19:16:35.306,-0.09106,-0.69165,-0.91772;
19:16:35.316,-0.08936,-0.70288,-0.89087;
19:16:35.326,-0.09741,-0.70703,-0.85547;
19:16:35.336,-0.10181,-0.67310,-0.81787;
19:16:35.346,-0.11255,-0.65698,-0.77222;
19:16:35.356,-0.14014,-0.63452,-0.74146;
19:16:35.366,-0.18237,-0.62720,-0.71484;
19:16:35.376,-0.14893,-0.62891,-0.72778;
19:16:35.386,-0.15674,-0.56470,-0.71265;
19:16:35.396,-0.18066,-0.55420,-0.68652;
19:16:35.406,-0.20874,-0.55371,-0.66016;
19:16:35.416,-0.21558,-0.56616,-0.64819;
19:16:35.426,-0.21313,-0.57251,-0.63354;
19:16:35.436,-0.22021,-0.58423,-0.62769;
19:16:35.446,-0.22241,-0.59253,-0.63306;
19:16:35.456,-0.22827,-0.59888,-0.62842;
19:16:35.466,-0.24438,-0.60669,-0.62817;
19:16:35.476,-0.26807,-0.59790,-0.62793;
19:16:35.486,-0.29053,-0.60571,-0.62671;
19:16:35.496,-0.29492,-0.62402,-0.62524;
19:16:35.506,-0.28589,-0.60693,-0.63257;
19:16:35.516,-0.27588,-0.59424,-0.64258;
19:16:35.526,-0.27515,-0.60425,-0.63892;
19:16:35.536,-0.27563,-0.60767,-0.64307;
19:16:35.546,-0.26074,-0.58594,-0.65332;
19:16:35.556,-0.25049,-0.57227,-0.65942;
19:16:35.566,-0.25366,-0.58276,-0.65015;
19:16:35.576,-0.25195,-0.59692,-0.66089;
19:16:35.586,-0.23901,-0.59790,-0.68188;
19:16:35.596,-0.23828,-0.58594,-0.68799;
19:16:35.606,-0.24927,-0.57788,-0.70557;
19:16:35.616,-0.24854,-0.58154,-0.72461;
19:16:35.626,-0.24072,-0.57593,-0.74585;
19:16:35.636,-0.24536,-0.57715,-0.76001;
19:16:35.646,-0.25928,-0.59888,-0.76123;
19:16:35.656,-0.27075,-0.61133,-0.77002;
19:16:35.666,-0.27734,-0.61597,-0.77368;
19:16:35.676,-0.28516,-0.62158,-0.77344;
19:16:35.686,-0.28394,-0.62915,-0.75684;
19:16:35.696,-0.28247,-0.59155,-0.76611;
19:16:35.706,-0.27979,-0.60791,-0.78101;
19:16:35.716,-0.28320,-0.60352,-0.77954;
19:16:35.726,-0.29614,-0.55688,-0.76636;
19:16:35.736,-0.30688,-0.52661,-0.75439;
19:16:35.746,-0.31860,-0.53784,-0.73877;
19:16:35.756,-0.32886,-0.58887,-0.72021;
19:16:35.766,-0.32471,-0.60742,-0.72437;
19:16:35.776,-0.32471,-0.58691,-0.74609;
19:16:35.786,-0.33105,-0.57886,-0.76514;
19:16:35.796,-0.33813,-0.58057,-0.78223;
19:16:35.806,-0.33496,-0.57129,-0.79395;
19:16:35.816,-0.32813,-0.52466,-0.81323;
19:16:35.826,-0.33472,-0.50366,-0.82275;
19:16:35.836,-0.33887,-0.49902,-0.81738;
19:16:35.846,-0.34326,-0.49048,-0.80615;
19:16:35.856,-0.34668,-0.50781,-0.78564;
19:16:35.866,-0.35107,-0.53833,-0.76294;
19:16:35.876,-0.35229,-0.53320,-0.75244;
19:16:35.886,-0.34937,-0.51001,-0.75391;
19:16:35.896,-0.34351,-0.50537,-0.76636;
19:16:35.906,-0.33521,-0.50415,-0.77637;
19:16:35.916,-0.33276,-0.51074,-0.77588;
19:16:35.926,-0.33374,-0.51343,-0.78003;
19:16:35.936,-0.33105,-0.50049,-0.78320;
19:16:35.946,-0.32544,-0.48877,-0.78198;
19:16:35.956,-0.32104,-0.49438,-0.77881;
19:16:35.966,-0.32153,-0.50659,-0.77686;
19:16:35.976,-0.32080,-0.50830,-0.78198;
19:16:35.986,-0.31812,-0.50586,-0.79028;
19:16:35.996,-0.32300,-0.49609,-0.80225;
19:16:36.006,-0.34058,-0.49561,-0.80835;
19:16:36.016,-0.34277,-0.49707,-0.80908;
19:16:36.026,-0.34375,-0.50464,-0.80933;
19:16:36.036,-0.34375,-0.50562,-0.80542;
19:16:36.046,-0.34570,-0.50415,-0.80640;
19:16:36.056,-0.35181,-0.50342,-0.79785;
19:16:36.066,-0.35474,-0.51880,-0.78784;
19:16:36.076,-0.35107,-0.51831,-0.79492;
19:16:36.086,-0.35303,-0.52222,-0.78442;
19:16:36.096,-0.35132,-0.53027,-0.77271;
19:16:36.106,-0.34570,-0.50610,-0.78345;
19:16:36.116,-0.34082,-0.50586,-0.79004;
19:16:36.126,-0.34155,-0.51978,-0.79150;
19:16:36.136,-0.34302,-0.51636,-0.79199;
19:16:36.146,-0.34326,-0.50952,-0.79321;
19:16:36.156,-0.34326,-0.50610,-0.79492;
19:16:36.166,-0.33813,-0.49390,-0.79492;
19:16:36.176,-0.33228,-0.48193,-0.79761;
19:16:36.186,-0.32690,-0.48462,-0.80811;
19:16:36.196,-0.33179,-0.49146,-0.80786;
19:16:36.206,-0.34106,-0.50317,-0.80151;
19:16:36.216,-0.34033,-0.49512,-0.80054;
19:16:36.226,-0.33594,-0.48486,-0.81104;
