time,acc_x,acc_y,acc_z
18:22:52.520,-0.57300,-0.46265,-0.70483;
18:22:52.530,-0.59619,-0.49414,-0.71338;
18:22:52.540,-0.63745,-0.44995,-0.72314;
18:22:52.550,-0.70142,-0.38452,-0.69434;
18:22:52.560,-0.77856,-0.26904,-0.64014;
18:22:52.570,-0.84961,-0.11816,-0.64697;
18:22:52.580,-0.88647,-0.07813,-0.72363;
18:22:52.590,-0.85498,-0.19629,-0.81152;
18:22:52.600,-0.79956,-0.38770,-0.85254;
18:22:52.610,-0.74072,-0.53662,-0.83447;
18:22:52.620,-0.69897,-0.57983,-0.76733;
18:22:52.630,-0.68579,-0.49146,-0.73828;
18:22:52.640,-0.66919,-0.34229,-0.75562;
18:22:52.650,-0.63354,-0.28369,-0.76074;
18:22:52.660,-0.59912,-0.32178,-0.77563;
18:22:52.670,-0.58545,-0.36890,-0.76270;
18:22:52.680,-0.49463,-0.42407,-0.81860;
18:22:52.690,-0.46997,-0.50610,-0.78589;
18:22:52.700,-0.47534,-0.53638,-0.72998;
18:22:52.710,-0.47388,-0.53491,-0.68823;
18:22:52.720,-0.44067,-0.54785,-0.67285;
18:22:52.730,-0.37817,-0.55957,-0.71338;
18:22:52.740,-0.36475,-0.53784,-0.72656;
18:22:52.750,-0.37207,-0.50439,-0.76489;
18:22:52.760,-0.46924,-0.45337,-0.86523;
18:22:52.770,-0.53735,-0.38232,-0.89673;
18:22:52.780,-0.62842,-0.27490,-0.90869;
18:22:52.790,-0.69775,-0.20166,-0.89600;
18:22:52.800,-0.71655,-0.19043,-0.86963;
18:22:52.810,-0.71313,-0.23462,-0.80664;
18:22:52.820,-0.68311,-0.33765,-0.69971;
18:22:52.830,-0.64307,-0.44653,-0.59326;
18:22:52.840,-0.59595,-0.51416,-0.53296;
18:22:52.850,-0.55664,-0.55713,-0.52954;
18:22:52.860,-0.51538,-0.54761,-0.56274;
18:22:52.870,-0.47095,-0.47778,-0.63892;
18:22:52.880,-0.46802,-0.38623,-0.72192;
18:22:52.890,-0.50806,-0.30298,-0.75610;
18:22:52.900,-0.57422,-0.27539,-0.75220;
18:22:52.910,-0.55786,-0.36182,-0.80225;
18:22:52.920,-0.56958,-0.41187,-0.82910;
18:22:52.930,-0.57446,-0.26611,-0.74536;
18:22:52.940,-0.58350,-0.22729,-0.60913;
18:22:52.950,-0.53687,-0.43872,-0.52368;
18:22:52.960,-0.50806,-0.46191,-0.47876;
18:22:52.970,-0.48389,-0.41284,-0.43091;
18:22:52.980,-0.45776,-0.35938,-0.41821;
18:22:52.990,-0.43188,-0.34229,-0.42993;
18:22:53.000,-0.40723,-0.32617,-0.45361;
18:22:53.010,-0.37744,-0.30298,-0.48193;
18:22:53.020,-0.37109,-0.26538,-0.49390;
18:22:53.030,-0.37866,-0.20972,-0.48901;
18:22:53.040,-0.37988,-0.15869,-0.48267;
18:22:53.050,-0.38501,-0.12427,-0.45825;
18:22:53.060,-0.38110,-0.12085,-0.45020;
18:22:53.070,-0.37598,-0.12427,-0.44507;
18:22:53.080,-0.36768,-0.11890,-0.45532;
18:22:53.090,-0.36963,-0.09985,-0.47388;
18:22:53.100,-0.37964,-0.07983,-0.47363;
18:22:53.110,-0.37988,-0.07373,-0.44824;
18:22:53.120,-0.38135,-0.06738,-0.40576;
18:22:53.130,-0.37964,-0.05322,-0.35718;
18:22:53.140,-0.38647,-0.02783,-0.30640;
18:22:53.150,-0.40942,0.03174,-0.26514;
18:22:53.160,-0.42358,0.09937,-0.26953;
18:22:53.170,-0.43311,0.16089,-0.28564;
18:22:53.180,-0.42725,0.24243,-0.28564;
18:22:53.190,-0.41577,0.26367,-0.26733;
18:22:53.200,-0.41577,0.35303,-0.25684;
18:22:53.210,-0.43726,0.54443,-0.21680;
18:22:53.220,-0.44873,0.67017,-0.18677;
18:22:53.230,-0.45239,0.77100,-0.16455;
18:22:53.240,-0.45605,0.81250,-0.18433;
18:22:53.250,-0.44019,0.80005,-0.21265;
18:22:53.260,-0.41870,0.78076,-0.21460;
18:22:53.270,-0.38208,0.78613,-0.21509;
18:22:53.280,-0.34424,0.84082,-0.24365;
18:22:53.290,-0.32080,0.89746,-0.28687;
18:22:53.300,-0.29517,0.90210,-0.32080;
18:22:53.310,-0.28003,0.89673,-0.34570;
18:22:53.320,-0.26050,0.86450,-0.35352;
18:22:53.330,-0.23340,0.79639,-0.36377;
18:22:53.340,-0.17700,0.74976,-0.39526;
18:22:53.350,-0.00366,0.81592,-0.51929;
18:22:53.360,0.06885,0.86279,-0.57739;
18:22:53.370,0.11230,0.84497,-0.57666;
18:22:53.380,0.14063,0.83032,-0.53809;
18:22:53.390,0.18555,0.83447,-0.49512;
18:22:53.400,0.26172,0.90210,-0.45117;
18:22:53.410,0.35547,1.00464,-0.44019;
18:22:53.420,0.51782,1.08569,-0.43970;
18:22:53.430,0.57837,1.10156,-0.45581;
18:22:53.440,0.64868,1.13232,-0.48438;
18:22:53.450,0.73486,1.22363,-0.52051;
18:22:53.460,0.81592,1.34839,-0.54614;
18:22:53.470,0.91821,1.43945,-0.56860;
18:22:53.480,1.11792,1.29712,-0.49805;
18:22:53.490,1.11450,1.19580,-0.44360;
18:22:53.500,1.13257,1.11426,-0.44067;
18:22:53.510,1.16089,1.09790,-0.46826;
18:22:53.520,1.22852,1.06274,-0.47510;
18:22:53.530,1.27466,1.04492,-0.49805;
18:22:53.540,1.28345,1.04468,-0.52148;
18:22:53.550,1.26855,1.00342,-0.52539;
18:22:53.560,1.22363,0.96802,-0.51978;
18:22:53.570,1.19092,0.93848,-0.50854;
18:22:53.580,1.16748,0.87720,-0.48291;
18:22:53.590,1.16919,0.81860,-0.46509;
18:22:53.600,1.17212,0.75562,-0.42212;
18:22:53.610,1.12720,0.67920,-0.39160;
18:22:53.620,1.07422,0.64966,-0.37549;
18:22:53.630,1.05640,0.63770,-0.34888;
18:22:53.640,1.04102,0.61572,-0.32397;
18:22:53.650,1.00732,0.58521,-0.30688;
18:22:53.660,0.98047,0.57129,-0.29980;
18:22:53.670,0.96436,0.57471,-0.29395;
18:22:53.680,0.95801,0.57837,-0.28271;
18:22:53.690,0.95142,0.58154,-0.26733;
18:22:53.700,0.94702,0.57959,-0.25415;
18:22:53.710,0.94580,0.58423,-0.23755;
18:22:53.720,0.93872,0.58936,-0.22778;
18:22:53.730,0.93457,0.59619,-0.21826;
18:22:53.740,0.91968,0.58984,-0.19727;
18:22:53.750,0.94263,0.55225,-0.18164;
18:22:53.760,0.95239,0.52759,-0.17114;
18:22:53.770,0.95264,0.51147,-0.17603;
18:22:53.780,0.95776,0.50146,-0.17773;
18:22:53.790,0.95361,0.49341,-0.17505;
18:22:53.800,0.94043,0.47949,-0.17627;
18:22:53.810,0.93286,0.46533,-0.17920;
18:22:53.820,0.93066,0.45337,-0.18457;
18:22:53.830,0.92578,0.44922,-0.19556;
18:22:53.840,0.91309,0.44165,-0.19995;
18:22:53.850,0.89966,0.43091,-0.20947;
18:22:53.860,0.88599,0.40479,-0.22168;
18:22:53.870,0.87891,0.39038,-0.23047;
18:22:53.880,0.87573,0.37817,-0.23413;
18:22:53.890,0.86963,0.37109,-0.24341;
18:22:53.900,0.86694,0.37280,-0.25195;
18:22:53.910,0.85693,0.38013,-0.26245;
18:22:53.920,0.84619,0.38672,-0.26904;
18:22:53.930,0.83521,0.38770,-0.27588;
18:22:53.940,0.82568,0.38916,-0.27710;
18:22:53.950,0.81665,0.38550,-0.27954;
18:22:53.960,0.80054,0.37354,-0.29004;
18:22:53.970,0.78857,0.35864,-0.29370;
18:22:53.980,0.78076,0.35352,-0.30005;
18:22:53.990,0.77637,0.35303,-0.30957;
18:22:54.000,0.77490,0.35596,-0.32202;
18:22:54.010,0.77832,0.36157,-0.33325;
18:22:54.020,0.78662,0.36646,-0.35376;
18:22:54.030,0.80444,0.38770,-0.36108;
18:22:54.040,0.82202,0.39624,-0.36157;
18:22:54.050,0.82568,0.39551,-0.36157;
18:22:54.060,0.82324,0.38721,-0.36084;
18:22:54.070,0.82007,0.38159,-0.36011;
18:22:54.080,0.82129,0.38232,-0.36133;
18:22:54.090,0.82642,0.38232,-0.36133;
18:22:54.100,0.82739,0.38452,-0.36572;
18:22:54.110,0.82617,0.39331,-0.37085;
18:22:54.120,0.81982,0.40942,-0.37305;
18:22:54.130,0.80981,0.42578,-0.38208;
18:22:54.140,0.80054,0.43896,-0.38452;
18:22:54.150,0.79395,0.44775,-0.38379;
18:22:54.160,0.78833,0.45508,-0.38623;
18:22:54.170,0.78540,0.45825,-0.38452;
18:22:54.180,0.78491,0.46143,-0.37988;
18:22:54.190,0.78613,0.46289,-0.38013;
18:22:54.200,0.78735,0.45996,-0.37646;
18:22:54.210,0.78003,0.45947,-0.36987;
18:22:54.220,0.78491,0.46167,-0.36572;
18:22:54.230,0.79614,0.45947,-0.35840;
18:22:54.240,0.80469,0.45752,-0.35083;
18:22:54.250,0.81592,0.45654,-0.34131;
18:22:54.260,0.82666,0.45898,-0.33496;
18:22:54.270,0.84692,0.46631,-0.33008;
18:22:54.280,0.87891,0.47461,-0.32666;
18:22:54.290,0.90649,0.48755,-0.33008;
18:22:54.300,0.94946,0.50073,-0.35205;
18:22:54.310,1.07007,0.53394,-0.34082;
18:22:54.320,1.07397,0.52588,-0.32251;
18:22:54.330,1.05859,0.51245,-0.29932;
18:22:54.340,1.02197,0.49854,-0.26831;
18:22:54.350,0.98438,0.49268,-0.24512;
18:22:54.360,0.94873,0.49146,-0.23267;
18:22:54.370,0.92603,0.49365,-0.22168;
18:22:54.380,0.92896,0.49023,-0.20801;
18:22:54.390,0.94385,0.48438,-0.20679;
18:22:54.400,0.96143,0.48145,-0.20947;
18:22:54.410,0.97900,0.48047,-0.20825;
18:22:54.420,0.99341,0.48022,-0.20313;
18:22:54.430,1.00195,0.48364,-0.19775;
18:22:54.440,1.00146,0.49072,-0.18701;
18:22:54.450,0.99927,0.49585,-0.16772;
18:22:54.460,0.99146,0.49463,-0.14819;
18:22:54.470,0.97729,0.49414,-0.13745;
18:22:54.480,0.95776,0.48975,-0.12354;
18:22:54.490,0.93530,0.47974,-0.11206;
18:22:54.500,0.91235,0.47046,-0.10352;
18:22:54.510,0.88672,0.46436,-0.10571;
18:22:54.520,0.86694,0.46631,-0.10693;
18:22:54.530,0.86938,0.45996,-0.09912;
18:22:54.540,0.87085,0.45288,-0.09888;
18:22:54.550,0.86621,0.45703,-0.09668;
18:22:54.560,0.88037,0.46558,-0.08911;
18:22:54.570,0.89331,0.46289,-0.07593;
18:22:54.580,0.93896,0.44922,-0.04077;
18:22:54.590,0.95313,0.42993,-0.01636;
18:22:54.600,0.94971,0.42944,-0.01025;
18:22:54.610,0.95996,0.42798,0.00439;
18:22:54.620,0.98169,0.42017,0.02002;
18:22:54.630,0.98462,0.41211,0.03003;
18:22:54.640,0.98218,0.40894,0.04248;
18:22:54.650,0.97070,0.40845,0.05005;
18:22:54.660,0.95557,0.40625,0.04907;
18:22:54.670,0.94092,0.40503,0.05176;
18:22:54.680,0.92017,0.40918,0.05029;
18:22:54.690,0.90308,0.41284,0.04932;
18:22:54.700,0.88135,0.41870,0.03857;
18:22:54.710,0.87158,0.42871,0.03296;
18:22:54.720,0.85400,0.44092,0.02051;
18:22:54.730,0.84473,0.45801,0.01392;
18:22:54.740,0.84668,0.46948,0.00928;
18:22:54.750,0.85181,0.47314,0.00049;
18:22:54.760,0.85864,0.47510,-0.00244;
18:22:54.770,0.86353,0.48413,-0.00732;
18:22:54.780,0.87134,0.48706,-0.00513;
18:22:54.790,0.87671,0.48511,-0.00342;
18:22:54.800,0.88062,0.48486,-0.00439;
18:22:54.810,0.89038,0.48267,-0.00928;
18:22:54.820,0.90015,0.48413,-0.02197;
18:22:54.830,0.91162,0.48706,-0.03223;
18:22:54.840,0.92480,0.49414,-0.04321;
18:22:54.850,0.93628,0.50464,-0.06885;
18:22:54.860,0.94653,0.51123,-0.07837;
18:22:54.870,0.95361,0.51294,-0.09521;
18:22:54.880,0.95972,0.50977,-0.10229;
18:22:54.890,0.96753,0.50977,-0.11084;
18:22:54.900,0.96924,0.50806,-0.10986;
18:22:54.910,0.96411,0.50562,-0.11768;
18:22:54.920,0.95972,0.50342,-0.12231;
18:22:54.930,0.95532,0.50293,-0.12305;
18:22:54.940,0.95361,0.49780,-0.12451;
18:22:54.950,0.95190,0.48901,-0.12109;
18:22:54.960,0.95020,0.48120,-0.11963;
18:22:54.970,0.94775,0.47412,-0.12085;
18:22:54.980,0.94482,0.47266,-0.12109;
18:22:54.990,0.94360,0.46826,-0.12280;
18:22:55.000,0.94214,0.46289,-0.12915;
18:22:55.010,0.93799,0.46582,-0.13354;
18:22:55.020,0.92896,0.46729,-0.14136;
18:22:55.030,0.91943,0.46777,-0.14648;
18:22:55.040,0.91602,0.47070,-0.15112;
18:22:55.050,0.92603,0.47339,-0.15820;
18:22:55.060,0.93652,0.47461,-0.16064;
18:22:55.070,0.94360,0.47412,-0.16382;
18:22:55.080,0.94849,0.47583,-0.16650;
18:22:55.090,0.94482,0.47827,-0.16772;
18:22:55.100,0.94263,0.47607,-0.16943;
18:22:55.110,0.93970,0.47217,-0.16919;
18:22:55.120,0.93628,0.46753,-0.16895;
18:22:55.130,0.93945,0.46240,-0.16992;
18:22:55.140,0.97095,0.46313,-0.17505;
18:22:55.150,1.01343,0.46631,-0.17725;
18:22:55.160,1.03345,0.46851,-0.17090;
18:22:55.170,1.04541,0.46362,-0.15283;
18:22:55.180,1.04370,0.45190,-0.13574;
18:22:55.190,1.03271,0.44287,-0.12134;
18:22:55.200,1.01563,0.43506,-0.11597;
18:22:55.210,0.99487,0.42700,-0.10889;
18:22:55.220,0.96509,0.42993,-0.10181;
18:22:55.230,0.93652,0.43188,-0.10425;
18:22:55.240,0.91528,0.43945,-0.10840;
18:22:55.250,0.90430,0.45044,-0.11621;
18:22:55.260,0.89990,0.46191,-0.12720;
18:22:55.270,0.89819,0.47290,-0.13867;
18:22:55.280,0.89795,0.47974,-0.15112;
18:22:55.290,0.89307,0.48608,-0.16211;
18:22:55.300,0.88721,0.48315,-0.16333;
18:22:55.310,0.88525,0.47290,-0.15869;
18:22:55.320,0.88843,0.46289,-0.15576;
18:22:55.330,0.89453,0.44751,-0.15308;
18:22:55.340,0.89819,0.42847,-0.15186;
18:22:55.350,0.90161,0.41772,-0.15015;
18:22:55.360,0.90747,0.41333,-0.15503;
18:22:55.370,0.91284,0.41138,-0.15845;
18:22:55.380,0.91553,0.40698,-0.16162;
18:22:55.390,0.91870,0.39575,-0.16235;
18:22:55.400,0.92261,0.38428,-0.15625;
18:22:55.410,0.92505,0.37500,-0.15552;
18:22:55.420,0.92676,0.36768,-0.14868;
18:22:55.430,0.91846,0.35303,-0.14600;
18:22:55.440,0.93115,0.36768,-0.15552;
18:22:55.450,0.94385,0.37378,-0.15698;
18:22:55.460,0.95117,0.37671,-0.16138;
18:22:55.470,0.95557,0.38013,-0.16431;
18:22:55.480,0.96143,0.38159,-0.16992;
18:22:55.490,0.97168,0.38086,-0.17383;
18:22:55.500,0.98242,0.38257,-0.17993;
18:22:55.510,0.97925,0.39111,-0.18799;
18:22:55.520,0.96509,0.39551,-0.19531;
18:22:55.530,0.93237,0.39331,-0.20361;
18:22:55.540,0.89404,0.38940,-0.21289;
18:22:55.550,0.85815,0.38599,-0.21899;
18:22:55.560,0.82886,0.38062,-0.22021;
18:22:55.570,0.80542,0.37500,-0.22681;
18:22:55.580,0.77686,0.37427,-0.23462;
18:22:55.590,0.76123,0.37549,-0.24097;
18:22:55.600,0.74585,0.37500,-0.24634;
18:22:55.610,0.73535,0.37476,-0.25024;
18:22:55.620,0.73706,0.37671,-0.25269;
18:22:55.630,0.74341,0.37866,-0.25610;
18:22:55.640,0.75293,0.38843,-0.25903;
18:22:55.650,0.75781,0.39722,-0.25635;
18:22:55.660,0.76147,0.39648,-0.25415;
18:22:55.670,0.75830,0.39478,-0.25439;
18:22:55.680,0.75244,0.39526,-0.25342;
18:22:55.690,0.75586,0.39746,-0.25073;
18:22:55.700,0.76343,0.40234,-0.24951;
18:22:55.710,0.77563,0.41235,-0.25269;
18:22:55.720,0.93359,0.49048,-0.30444;
18:22:55.730,1.04517,0.50757,-0.33789;
18:22:55.740,1.07422,0.50439,-0.33008;
18:22:55.750,1.06274,0.49048,-0.30396;
18:22:55.760,1.01538,0.47070,-0.27612;
18:22:55.770,0.96533,0.45679,-0.25806;
18:22:55.780,0.91870,0.44946,-0.24902;
18:22:55.790,0.95532,0.43994,-0.22485;
18:22:55.800,0.96069,0.44727,-0.21924;
18:22:55.810,0.96411,0.44873,-0.20532;
18:22:55.820,0.96289,0.44702,-0.19067;
18:22:55.830,0.95874,0.43872,-0.18042;
18:22:55.840,0.94873,0.42944,-0.16968;
18:22:55.850,0.93213,0.42773,-0.16333;
18:22:55.860,0.91797,0.43628,-0.15967;
18:22:55.870,0.91113,0.44629,-0.16040;
18:22:55.880,0.90625,0.45215,-0.15796;
18:22:55.890,0.89990,0.45898,-0.15698;
18:22:55.900,0.89624,0.46216,-0.16016;
18:22:55.910,0.89502,0.46558,-0.16479;
18:22:55.920,0.89355,0.47070,-0.17065;
18:22:55.930,0.90210,0.46606,-0.16455;
18:22:55.940,0.91553,0.44971,-0.14600;
18:22:55.950,0.93237,0.43945,-0.14111;
18:22:55.960,0.94946,0.42920,-0.13647;
18:22:55.970,0.96216,0.42285,-0.13232;
18:22:55.980,0.96802,0.41626,-0.13037;
18:22:55.990,0.96680,0.41138,-0.13184;
18:22:56.000,0.95996,0.41040,-0.13135;
18:22:56.010,0.95508,0.41284,-0.13037;
18:22:56.020,0.95093,0.41577,-0.13013;
18:22:56.030,0.94727,0.41431,-0.13135;
18:22:56.040,0.94189,0.41577,-0.12939;
18:22:56.050,0.93213,0.41870,-0.13281;
18:22:56.060,0.92578,0.42065,-0.13452;
18:22:56.070,0.92188,0.42310,-0.13623;
18:22:56.080,0.92163,0.42114,-0.13745;
18:22:56.090,0.92212,0.41455,-0.13721;
18:22:56.100,0.92114,0.41431,-0.14087;
18:22:56.110,0.92310,0.41138,-0.14063;
18:22:56.120,0.92529,0.40698,-0.14478;
18:22:56.130,0.92383,0.40601,-0.14429;
18:22:56.140,0.92261,0.40381,-0.14551;
18:22:56.150,0.92407,0.40332,-0.14673;
18:22:56.160,0.91943,0.40430,-0.15039;
18:22:56.170,0.91382,0.40625,-0.15649;
18:22:56.180,0.90991,0.40894,-0.15576;
18:22:56.190,0.90674,0.41235,-0.15796;
18:22:56.200,0.90723,0.41357,-0.16040;
18:22:56.210,0.90918,0.41626,-0.16138;
18:22:56.220,0.91309,0.41724,-0.16260;
18:22:56.230,0.91431,0.42285,-0.16357;
18:22:56.240,0.91821,0.42383,-0.16577;
18:22:56.250,0.91919,0.42969,-0.16772;
18:22:56.260,0.92114,0.43311,-0.16772;
18:22:56.270,0.92310,0.43359,-0.17236;
18:22:56.280,0.92285,0.43457,-0.17529;
18:22:56.290,0.92456,0.43750,-0.17505;
18:22:56.300,0.93018,0.43799,-0.17480;
18:22:56.310,0.92944,0.44067,-0.17456;
18:22:56.320,0.92896,0.44360,-0.17407;
18:22:56.330,0.92676,0.44604,-0.17334;
18:22:56.340,0.91992,0.44556,-0.17993;
18:22:56.350,0.92041,0.44751,-0.18091;
18:22:56.360,0.91870,0.45044,-0.18115;
18:22:56.370,0.91504,0.45142,-0.18066;
18:22:56.380,0.91577,0.45166,-0.18042;
18:22:56.390,0.91577,0.44751,-0.17944;
18:22:56.400,0.91406,0.44800,-0.17896;
18:22:56.410,0.91284,0.44873,-0.17847;
18:22:56.420,0.91284,0.44922,-0.17407;
18:22:56.430,0.91235,0.45020,-0.17236;
18:22:56.440,0.91260,0.44897,-0.17285;
18:22:56.450,0.91235,0.44897,-0.17456;
18:22:56.460,0.91040,0.44971,-0.16992;
18:22:56.470,0.91089,0.44995,-0.16943;
18:22:56.480,0.91089,0.44897,-0.16797;
18:22:56.490,0.90918,0.44922,-0.16284;
18:22:56.500,0.90942,0.44800,-0.16577;
18:22:56.510,0.90649,0.44775,-0.16333;
18:22:56.520,0.90259,0.44775,-0.16187;
18:22:56.530,0.90625,0.44287,-0.15747;
18:22:56.540,0.90967,0.44141,-0.15649;
18:22:56.550,0.91309,0.44165,-0.15918;
18:22:56.560,0.91382,0.44165,-0.15747;
18:22:56.570,0.91504,0.44214,-0.15796;
18:22:56.580,0.91406,0.44092,-0.15723;
18:22:56.590,0.91284,0.43848,-0.15283;
18:22:56.600,0.91138,0.43604,-0.15527;
18:22:56.610,0.91162,0.43604,-0.15283;
18:22:56.620,0.91406,0.43652,-0.15503;
18:22:56.630,0.91187,0.43677,-0.16040;
18:22:56.640,0.91138,0.43579,-0.15845;
18:22:56.650,0.90918,0.43408,-0.16187;
18:22:56.660,0.90771,0.42920,-0.16382;
18:22:56.670,0.90723,0.43408,-0.16113;
18:22:56.680,0.90894,0.43359,-0.16138;
18:22:56.690,0.90869,0.42969,-0.16040;
18:22:56.700,0.90674,0.43213,-0.16064;
18:22:56.710,0.90503,0.43555,-0.16431;
18:22:56.720,0.90479,0.44116,-0.16895;
18:22:56.730,0.90552,0.44678,-0.17529;
18:22:56.740,0.90942,0.45044,-0.17871;
18:22:56.750,0.91406,0.45166,-0.18140;
18:22:56.760,0.91553,0.45093,-0.17969;
18:22:56.770,0.91455,0.44604,-0.17603;
18:22:56.780,0.90967,0.44653,-0.17480;
18:22:56.790,0.90942,0.44531,-0.17529;
18:22:56.800,0.91260,0.44067,-0.17847;
18:22:56.810,0.92261,0.44019,-0.17871;
18:22:56.820,0.91016,0.43848,-0.18018;
18:22:56.830,0.90820,0.43701,-0.18042;
18:22:56.840,0.90723,0.42822,-0.17798;
18:22:56.850,0.90796,0.42773,-0.17944;
18:22:56.860,0.90991,0.42700,-0.17822;
18:22:56.870,0.90771,0.42505,-0.17554;
18:22:56.880,0.91162,0.42749,-0.17603;
18:22:56.890,0.91724,0.43115,-0.17383;
18:22:56.900,0.91797,0.42871,-0.17310;
18:22:56.910,0.91895,0.43188,-0.17383;
18:22:56.920,0.91992,0.43262,-0.17285;
18:22:56.930,0.92041,0.43091,-0.17627;
18:22:56.940,0.91846,0.43042,-0.17114;
18:22:56.950,0.91699,0.42700,-0.16748;
18:22:56.960,0.91553,0.42969,-0.16943;
18:22:56.970,0.91284,0.42969,-0.16895;
18:22:56.980,0.91333,0.43042,-0.17139;
18:22:56.990,0.91479,0.43042,-0.16919;
18:22:57.000,0.91431,0.42920,-0.17017;
18:22:57.010,0.91357,0.42822,-0.16748;
18:22:57.020,0.91162,0.43140,-0.16553;
18:22:57.030,0.91138,0.42871,-0.16211;
18:22:57.040,0.90771,0.42798,-0.16211;
18:22:57.050,0.90796,0.43286,-0.16553;
18:22:57.060,0.91138,0.43555,-0.16309;
18:22:57.070,0.91260,0.43970,-0.16553;
18:22:57.080,0.91577,0.43848,-0.16748;
18:22:57.090,0.91699,0.43921,-0.16650;
18:22:57.100,0.90991,0.44653,-0.16895;
18:22:57.110,0.90723,0.44507,-0.17139;
18:22:57.120,0.90918,0.44653,-0.17285;
18:22:57.130,0.91016,0.44824,-0.17432;
18:22:57.140,0.91162,0.44946,-0.17212;
18:22:57.150,0.91187,0.44702,-0.17261;
18:22:57.160,0.91064,0.44751,-0.17358;
18:22:57.170,0.91016,0.44897,-0.17090;
18:22:57.180,0.90942,0.44873,-0.17212;
18:22:57.190,0.90869,0.44824,-0.17505;
18:22:57.200,0.90869,0.44775,-0.17505;
18:22:57.210,0.90820,0.44922,-0.17358;
18:22:57.220,0.90942,0.44946,-0.17383;
18:22:57.230,0.91040,0.44702,-0.17627;
18:22:57.240,0.91260,0.44800,-0.17725;
18:22:57.250,0.91357,0.44897,-0.17090;
18:22:57.260,0.91162,0.44775,-0.16870;
18:22:57.270,0.91382,0.44458,-0.16870;
18:22:57.280,0.91406,0.44263,-0.17114;
18:22:57.290,0.91309,0.44336,-0.17188;
18:22:57.300,0.91357,0.44116,-0.17261;
18:22:57.310,0.91260,0.43774,-0.17407;
18:22:57.320,0.91479,0.43701,-0.17188;
18:22:57.330,0.91650,0.43750,-0.16895;
18:22:57.340,0.91577,0.43457,-0.16895;
18:22:57.350,0.91406,0.43481,-0.16943;
18:22:57.360,0.91235,0.43335,-0.17139;
18:22:57.370,0.91187,0.43164,-0.17310;
18:22:57.380,0.91333,0.42822,-0.17432;
18:22:57.390,0.91626,0.42749,-0.17090;
18:22:57.400,0.91553,0.42798,-0.16919;
18:22:57.410,0.90845,0.42432,-0.16724;
18:22:57.420,0.90991,0.42578,-0.16650;
18:22:57.430,0.91504,0.42407,-0.16406;
18:22:57.440,0.91724,0.42236,-0.16113;
18:22:57.450,0.91235,0.42383,-0.16455;
18:22:57.460,0.91357,0.42603,-0.16309;
18:22:57.470,0.91553,0.42871,-0.16187;
18:22:57.480,0.91333,0.42822,-0.16260;
18:22:57.490,0.91431,0.43018,-0.15967;
18:22:57.500,0.91455,0.43115,-0.16260;
18:22:57.510,0.91626,0.43530,-0.16675;
18:22:57.520,0.91895,0.43701,-0.16699;
18:22:57.530,0.91992,0.44019,-0.16870;
18:22:57.540,0.92212,0.44287,-0.16699;
18:22:57.550,0.92261,0.44312,-0.16650;
18:22:57.560,0.92358,0.44458,-0.16650;
18:22:57.570,0.92041,0.44604,-0.16699;
18:22:57.580,0.91650,0.44678,-0.17090;
18:22:57.590,0.91626,0.44604,-0.16870;
18:22:57.600,0.91260,0.44775,-0.16968;
18:22:57.610,0.91309,0.44531,-0.16724;
18:22:57.620,0.91089,0.44238,-0.16528;
18:22:57.630,0.90674,0.44238,-0.16821;
18:22:57.640,0.90552,0.44067,-0.16699;
18:22:57.650,0.90552,0.43750,-0.16797;
18:22:57.660,0.90649,0.43774,-0.16626;
18:22:57.670,0.90649,0.43506,-0.16675;
18:22:57.680,0.90723,0.43506,-0.16748;
18:22:57.690,0.90747,0.43823,-0.16772;
18:22:57.700,0.91553,0.44116,-0.16626;
18:22:57.710,0.92212,0.44287,-0.16553;
18:22:57.720,0.92017,0.44141,-0.16235;
18:22:57.730,0.91528,0.43921,-0.16235;
18:22:57.740,0.91357,0.43701,-0.16357;
18:22:57.750,0.90967,0.43628,-0.16528;
18:22:57.760,0.90918,0.43750,-0.16406;
18:22:57.770,0.90942,0.43896,-0.16357;
18:22:57.780,0.91089,0.43872,-0.16406;
18:22:57.790,0.91064,0.43384,-0.16602;
18:22:57.800,0.90991,0.43237,-0.16431;
18:22:57.810,0.91138,0.43579,-0.16357;
18:22:57.820,0.91113,0.43457,-0.16455;
18:22:57.830,0.91211,0.43286,-0.16455;
18:22:57.840,0.91602,0.43188,-0.16699;
18:22:57.850,0.91724,0.43335,-0.16479;
18:22:57.860,0.91602,0.43286,-0.16382;
18:22:57.870,0.91528,0.43506,-0.16406;
18:22:57.880,0.91479,0.43506,-0.16675;
18:22:57.890,0.91504,0.43726,-0.16504;
18:22:57.900,0.91797,0.43823,-0.16382;
18:22:57.910,0.92285,0.43530,-0.16455;
18:22:57.920,0.92334,0.43579,-0.16284;
18:22:57.930,0.91992,0.43164,-0.16309;
18:22:57.940,0.91943,0.43408,-0.16504;
18:22:57.950,0.91626,0.43091,-0.16577;
18:22:57.960,0.91382,0.42920,-0.16309;
18:22:57.970,0.91382,0.43213,-0.16504;
18:22:57.980,0.91235,0.43018,-0.16260;
18:22:57.990,0.91162,0.43237,-0.16382;
18:22:58.000,0.91357,0.43433,-0.16260;
18:22:58.010,0.91675,0.43433,-0.16528;
18:22:58.020,0.91650,0.43506,-0.16260;
18:22:58.030,0.91553,0.43433,-0.16333;
18:22:58.040,0.91992,0.43701,-0.16309;
18:22:58.050,0.91992,0.43481,-0.16260;
18:22:58.060,0.92212,0.43481,-0.16211;
18:22:58.070,0.92114,0.43555,-0.16235;
18:22:58.080,0.91675,0.43481,-0.16260;
18:22:58.090,0.91821,0.43359,-0.16187;
18:22:58.100,0.91724,0.43286,-0.16260;
18:22:58.110,0.91333,0.43408,-0.16235;
18:22:58.120,0.91406,0.43359,-0.16309;
18:22:58.130,0.91699,0.43164,-0.16235;
18:22:58.140,0.91895,0.42847,-0.16113;
18:22:58.150,0.91821,0.42993,-0.16309;
18:22:58.160,0.91748,0.42871,-0.16235;
18:22:58.170,0.91724,0.42651,-0.16089;
18:22:58.180,0.91724,0.43018,-0.16309;
18:22:58.190,0.91919,0.43018,-0.16064;
18:22:58.200,0.91504,0.43018,-0.16187;
18:22:58.210,0.91016,0.42822,-0.16260;
18:22:58.220,0.90649,0.42725,-0.15771;
18:22:58.230,0.90991,0.42700,-0.15625;
18:22:58.240,0.91113,0.42603,-0.15576;
18:22:58.250,0.91357,0.42627,-0.15552;
18:22:58.260,0.91577,0.42676,-0.15576;
18:22:58.270,0.91650,0.43066,-0.15674;
18:22:58.280,0.92358,0.43823,-0.15698;
18:22:58.290,0.92285,0.43750,-0.15771;
18:22:58.300,0.92505,0.43872,-0.15967;
18:22:58.310,0.92358,0.44092,-0.16138;
18:22:58.320,0.92212,0.44019,-0.16113;
18:22:58.330,0.92383,0.44067,-0.16333;
18:22:58.340,0.92236,0.43726,-0.16431;
18:22:58.350,0.92261,0.43726,-0.16162;
18:22:58.360,0.92700,0.43701,-0.16235;
18:22:58.370,0.92603,0.43848,-0.16235;
18:22:58.380,0.92603,0.43677,-0.16162;
18:22:58.390,0.92480,0.43384,-0.16528;
18:22:58.400,0.92041,0.43091,-0.16309;
18:22:58.410,0.91650,0.42676,-0.16382;
18:22:58.420,0.91406,0.42505,-0.16650;
18:22:58.430,0.91357,0.42236,-0.16626;
18:22:58.440,0.91528,0.42041,-0.16846;
18:22:58.450,0.91821,0.41724,-0.17017;
18:22:58.460,0.92139,0.41724,-0.16772;
18:22:58.470,0.92871,0.41895,-0.16699;
18:22:58.480,0.93677,0.41821,-0.16626;
18:22:58.490,0.93628,0.41602,-0.16602;
18:22:58.500,0.93604,0.41406,-0.16382;
18:22:58.510,0.94141,0.41602,-0.16040;
18:22:58.520,0.94751,0.41846,-0.15430;
18:22:58.530,0.95703,0.42212,-0.14844;
18:22:58.540,0.95752,0.42188,-0.14795;
18:22:58.550,0.95215,0.41699,-0.14478;
18:22:58.560,0.94092,0.41113,-0.14063;
18:22:58.570,0.90991,0.40454,-0.13940;
18:22:58.580,0.89844,0.39502,-0.14136;
18:22:58.590,0.89453,0.38892,-0.14282;
18:22:58.600,0.89160,0.38110,-0.14136;
18:22:58.610,0.88794,0.37842,-0.13354;
18:22:58.620,0.88379,0.37695,-0.13208;
18:22:58.630,0.88208,0.37598,-0.13184;
18:22:58.640,0.88135,0.37305,-0.12939;
18:22:58.650,0.88501,0.36768,-0.12524;
18:22:58.660,0.88672,0.36523,-0.12158;
18:22:58.670,0.88916,0.36377,-0.11694;
18:22:58.680,0.88818,0.36279,-0.11255;
18:22:58.690,0.88330,0.35986,-0.11206;
18:22:58.700,0.87891,0.36157,-0.10767;
18:22:58.710,0.87402,0.36450,-0.10815;
18:22:58.720,0.87280,0.37085,-0.10571;
18:22:58.730,0.87939,0.37720,-0.10132;
18:22:58.740,0.88940,0.38062,-0.09741;
18:22:58.750,0.90283,0.38623,-0.08936;
18:22:58.760,0.92578,0.39014,-0.07788;
18:22:58.770,0.95264,0.39355,-0.07007;
18:22:58.780,0.98096,0.39404,-0.06299;
18:22:58.790,1.00659,0.39551,-0.05151;
18:22:58.800,1.04224,0.40283,-0.04321;
18:22:58.810,1.08032,0.41284,-0.03101;
18:22:58.820,1.12158,0.41675,-0.01050;
18:22:58.830,1.15479,0.41821,0.00171;
18:22:58.840,1.17944,0.42651,0.00830;
18:22:58.850,1.20630,0.43066,0.04907;
18:22:58.860,1.20850,0.41162,0.08154;
18:22:58.870,1.14917,0.40210,0.09521;
18:22:58.880,1.11646,0.39160,0.10083;
18:22:58.890,1.08203,0.38818,0.09961;
18:22:58.900,1.04712,0.38306,0.09912;
18:22:58.910,1.01270,0.36987,0.10303;
18:22:58.920,0.98340,0.35889,0.10303;
18:22:58.930,0.95142,0.35278,0.10034;
18:22:58.940,0.92139,0.34741,0.09937;
18:22:58.950,0.90234,0.34717,0.10181;
18:22:58.960,0.88867,0.35010,0.09985;
18:22:58.970,0.87671,0.35083,0.09790;
18:22:58.980,0.86084,0.34961,0.10059;
18:22:58.990,0.84619,0.34766,0.09570;
18:22:59.000,0.84180,0.34155,0.09839;
18:22:59.010,0.83862,0.33252,0.10522;
18:22:59.020,0.83911,0.32520,0.11060;
18:22:59.030,0.85229,0.32324,0.11987;
18:22:59.040,0.86353,0.32397,0.12720;
18:22:59.050,0.87915,0.32007,0.13281;
18:22:59.060,0.89429,0.32104,0.14087;
18:22:59.070,0.90771,0.32495,0.14868;
18:22:59.080,0.92603,0.33105,0.15356;
18:22:59.090,0.94946,0.34473,0.16284;
18:22:59.100,0.98071,0.35229,0.16455;
18:22:59.110,1.00244,0.35474,0.16284;
18:22:59.120,1.05396,0.36304,0.17236;
18:22:59.130,1.21729,0.40771,0.17603;
18:22:59.140,1.24829,0.49170,0.13599;
18:22:59.150,1.27148,0.49146,0.13281;
18:22:59.160,1.24316,0.48779,0.11646;
18:22:59.170,1.19702,0.50171,0.08887;
18:22:59.180,1.14111,0.52393,0.06079;
18:22:59.190,1.09912,0.54639,0.03784;
18:22:59.200,1.04272,0.55469,0.00708;
18:22:59.210,0.99707,0.53271,-0.01831;
18:22:59.220,0.95020,0.52026,-0.05078;
18:22:59.230,0.91162,0.52832,-0.07715;
18:22:59.240,0.91040,0.55542,-0.09326;
18:22:59.250,0.93774,0.59595,-0.11230;
18:22:59.260,0.97925,0.63550,-0.12671;
18:22:59.270,1.01270,0.66016,-0.13452;
18:22:59.280,1.04443,0.67114,-0.14063;
18:22:59.290,1.06665,0.67822,-0.13550;
18:22:59.300,1.07349,0.68896,-0.12720;
18:22:59.310,1.06616,0.69482,-0.12231;
18:22:59.320,1.03931,0.68530,-0.11963;
18:22:59.330,1.00342,0.66235,-0.12061;
18:22:59.340,0.96338,0.64136,-0.13037;
18:22:59.350,0.91699,0.62207,-0.13892;
18:22:59.360,0.87720,0.60132,-0.13843;
18:22:59.370,0.83984,0.59546,-0.14526;
18:22:59.380,0.80957,0.59912,-0.15527;
18:22:59.390,0.78540,0.61328,-0.16089;
18:22:59.400,0.75854,0.62451,-0.15991;
18:22:59.410,0.72632,0.62427,-0.16211;
18:22:59.420,0.70313,0.62012,-0.14941;
18:22:59.430,0.65259,0.58740,-0.13574;
18:22:59.440,0.63989,0.56934,-0.13330;
18:22:59.450,0.63428,0.55005,-0.13208;
18:22:59.460,0.63403,0.53271,-0.13525;
18:22:59.470,0.64209,0.52246,-0.13892;
18:22:59.480,0.65649,0.51587,-0.14185;
18:22:59.490,0.67041,0.51001,-0.14331;
18:22:59.500,0.68408,0.50610,-0.14111;
18:22:59.510,0.69360,0.49707,-0.13599;
18:22:59.520,0.70239,0.48682,-0.13062;
18:22:59.530,0.72070,0.48413,-0.13159;
18:22:59.540,0.74854,0.48389,-0.13550;
18:22:59.550,0.76904,0.48560,-0.14502;
18:22:59.560,0.77759,0.48193,-0.15186;
18:22:59.570,0.79102,0.47363,-0.16235;
18:22:59.580,0.80566,0.46802,-0.16870;
18:22:59.590,0.81958,0.46094,-0.17188;
18:22:59.600,0.83252,0.45459,-0.17676;
18:22:59.610,0.84546,0.44678,-0.18726;
18:22:59.620,0.85962,0.43726,-0.20166;
18:22:59.630,0.87769,0.42480,-0.21143;
18:22:59.640,0.89258,0.41553,-0.21924;
18:22:59.650,0.90356,0.40186,-0.22339;
18:22:59.660,0.91162,0.38647,-0.22705;
18:22:59.670,0.91431,0.37744,-0.22974;
18:22:59.680,0.90820,0.36670,-0.22876;
18:22:59.690,0.89722,0.36426,-0.23267;
18:22:59.700,0.88770,0.36133,-0.23706;
18:22:59.710,0.88623,0.35449,-0.23486;
18:22:59.720,0.88770,0.35376,-0.23364;
18:22:59.730,0.88232,0.35278,-0.24927;
18:22:59.740,0.90552,0.36890,-0.25439;
18:22:59.750,0.94604,0.39551,-0.25684;
18:22:59.760,0.99854,0.42578,-0.25513;
18:22:59.770,1.09790,0.48926,-0.24536;
18:22:59.780,1.11304,0.50879,-0.18286;
18:22:59.790,1.15723,0.61792,-0.18213;
18:22:59.800,1.20923,0.70532,-0.28857;
18:22:59.810,1.21729,0.81323,-0.36914;
18:22:59.820,1.17163,0.86255,-0.37012;
18:22:59.830,1.13940,0.77539,-0.33472;
18:22:59.840,1.19141,0.78467,-0.29590;
18:22:59.850,1.27441,0.84985,-0.22559;
18:22:59.860,1.31738,0.83936,-0.12671;
18:22:59.870,1.32324,0.79370,-0.02319;
18:22:59.880,1.30176,0.79175,0.06665;
18:22:59.890,1.26392,0.82813,0.14600;
18:22:59.900,1.18945,0.88135,0.18872;
18:22:59.910,1.08618,0.93262,0.19507;
18:22:59.920,1.00854,0.96851,0.18726;
18:22:59.930,0.33887,0.72705,0.08398;
18:22:59.940,0.26465,0.70947,0.09619;
18:22:59.950,0.26294,0.69043,0.10376;
18:22:59.960,0.26416,0.68408,0.10303;
18:22:59.970,0.27173,0.67578,0.09619;
18:22:59.980,0.29395,0.66309,0.08716;
18:22:59.990,0.33081,0.65747,0.07935;
18:23:00.000,0.37744,0.65991,0.07129;
18:23:00.010,0.42114,0.66626,0.05981;
18:23:00.020,0.47241,0.67090,0.05249;
18:23:00.030,0.51685,0.68774,0.04858;
18:23:00.040,0.57275,0.73608,0.04004;
18:23:00.050,0.64990,0.78955,0.02515;
18:23:00.060,0.73315,0.84692,0.01489;
18:23:00.070,0.87549,0.94897,-0.00342;
18:23:00.080,0.94287,0.99878,-0.02734;
18:23:00.090,0.99731,1.07202,-0.04663;
18:23:00.100,1.00684,1.13062,-0.05005;
18:23:00.110,0.93896,1.07495,-0.07104;
18:23:00.120,0.88696,0.95898,-0.08594;
18:23:00.130,0.86084,0.87549,-0.10571;
18:23:00.140,0.83203,0.80493,-0.14478;
18:23:00.150,0.82056,0.75610,-0.17847;
18:23:00.160,0.80005,0.72461,-0.21436;
18:23:00.170,0.76929,0.71436,-0.25024;
18:23:00.180,0.73047,0.71558,-0.27832;
18:23:00.190,0.70459,0.73755,-0.29175;
18:23:00.200,0.69946,0.78442,-0.30103;
18:23:00.210,0.69702,0.81689,-0.31445;
18:23:00.220,0.69336,0.84888,-0.37158;
18:23:00.230,0.68921,0.92358,-0.38770;
18:23:00.240,0.69067,1.02222,-0.36060;
18:23:00.250,0.70068,1.13477,-0.35645;
18:23:00.260,0.69238,1.24536,-0.36719;
18:23:00.270,0.65454,1.24170,-0.40283;
18:23:00.280,0.62451,1.18604,-0.43457;
18:23:00.290,0.62451,1.16089,-0.43286;
18:23:00.300,0.63818,1.13965,-0.39551;
18:23:00.310,0.64160,1.06470,-0.34644;
18:23:00.320,0.63745,0.97266,-0.28198;
18:23:00.330,0.64380,0.90674,-0.22998;
18:23:00.340,0.63550,0.85278,-0.19434;
18:23:00.350,0.61670,0.81689,-0.16431;
18:23:00.360,0.58911,0.78052,-0.15381;
18:23:00.370,0.54932,0.72583,-0.13745;
18:23:00.380,0.51489,0.67920,-0.12622;
18:23:00.390,0.43530,0.64819,-0.12720;
18:23:00.400,0.32837,0.60815,-0.12964;
18:23:00.410,0.30493,0.58472,-0.12402;
18:23:00.420,0.31689,0.58594,-0.11499;
18:23:00.430,0.30444,0.56226,-0.11694;
18:23:00.440,0.29980,0.56006,-0.12256;
18:23:00.450,0.28174,0.55322,-0.11963;
18:23:00.460,0.27393,0.49487,-0.11060;
18:23:00.470,0.27441,0.46582,-0.08252;
18:23:00.480,0.26270,0.43579,-0.03442;
18:23:00.490,0.25220,0.35254,-0.00171;
18:23:00.500,0.26196,0.33911,0.01855;
18:23:00.510,0.25659,0.43262,0.02100;
18:23:00.520,0.22095,0.54907,-0.06860;
18:23:00.530,0.08325,0.69556,-0.04004;
18:23:00.540,0.15210,0.69141,0.04761;
18:23:00.550,0.13403,0.58936,0.05005;
18:23:00.560,0.12500,0.59546,0.08276;
18:23:00.570,0.14526,0.71143,0.11475;
18:23:00.580,0.18408,0.85059,0.08032;
18:23:00.590,0.21338,0.90625,0.08081;
18:23:00.600,0.20776,0.90186,0.09106;
18:23:00.610,0.19629,0.89722,0.13110;
18:23:00.620,0.20996,0.92725,0.18726;
18:23:00.630,0.19727,1.04077,0.28320;
18:23:00.640,0.18701,1.19312,0.44727;
18:23:00.650,0.24170,1.23584,0.49023;
18:23:00.660,0.29614,1.23828,0.57349;
18:23:00.670,0.32153,1.31616,0.56104;
18:23:00.680,0.43750,1.01611,0.52466;
18:23:00.690,0.50513,0.57300,0.55811;
18:23:00.700,0.50854,0.58472,0.53882;
18:23:00.710,0.57544,0.73193,0.61719;
18:23:00.720,0.59058,0.81104,0.78223;
18:23:00.730,0.57959,0.90723,0.89819;
18:23:00.740,0.58569,1.22046,1.01807;
18:23:00.750,0.57715,1.30176,1.13257;
18:23:00.760,0.56836,1.14233,1.16504;
18:23:00.770,0.51025,0.96851,1.14087;
18:23:00.780,0.50854,1.00244,1.06641;
18:23:00.790,0.51123,1.00098,1.01709;
18:23:00.800,0.52710,0.94336,0.97559;
18:23:00.810,0.50122,0.78174,0.94214;
18:23:00.820,0.48877,0.69092,0.93188;
18:23:00.830,0.46460,0.58276,0.91895;
18:23:00.840,0.41138,0.58618,0.89307;
18:23:00.850,0.37305,0.59888,0.88452;
18:23:00.860,0.35962,0.57275,0.83960;
18:23:00.870,0.33569,0.54541,0.74438;
18:23:00.880,0.29907,0.51904,0.63086;
18:23:00.890,0.27295,0.49121,0.53589;
18:23:00.900,0.26660,0.43799,0.46826;
18:23:00.910,0.25220,0.39331,0.42676;
18:23:00.920,0.21997,0.34668,0.41504;
18:23:00.930,0.18799,0.32080,0.40747;
18:23:00.940,0.16357,0.32861,0.42578;
18:23:00.950,0.16675,0.36694,0.43896;
18:23:00.960,0.18237,0.41870,0.43872;
18:23:00.970,0.18677,0.43530,0.45215;
18:23:00.980,0.19604,0.43579,0.46118;
18:23:00.990,0.21802,0.43530,0.47021;
18:23:01.000,0.25879,0.46655,0.47729;
18:23:01.010,0.28467,0.50024,0.47388;
18:23:01.020,0.29590,0.52002,0.47363;
18:23:01.030,0.31445,0.54102,0.47144;
18:23:01.040,0.32837,0.56445,0.44482;
18:23:01.050,0.34082,0.60669,0.41577;
18:23:01.060,0.34253,0.65698,0.43628;
18:23:01.070,0.32983,0.66846,0.51343;
18:23:01.080,0.32275,0.69165,0.67139;
18:23:01.090,0.33643,0.74097,0.76001;
18:23:01.100,0.46094,0.92334,0.72583;
18:23:01.110,0.51880,1.05469,0.71289;
18:23:01.120,0.52393,1.08936,0.71948;
18:23:01.130,0.52441,1.11011,0.71777;
18:23:01.140,0.52881,1.11987,0.73120;
18:23:01.150,0.54077,1.16284,0.74658;
18:23:01.160,0.56787,1.25562,0.75366;
18:23:01.170,0.59644,1.37427,0.77344;
18:23:01.180,0.61157,1.47339,0.80981;
18:23:01.190,0.60718,1.52637,0.85278;
18:23:01.200,0.58667,1.55737,0.84204;
18:23:01.210,0.58862,1.59473,0.72290;
18:23:01.220,0.61084,1.62939,0.54590;
18:23:01.230,0.61865,1.63257,0.46973;
18:23:01.240,0.62451,1.56055,0.54761;
18:23:01.250,0.63672,1.47485,0.70410;
18:23:01.260,0.63965,1.46313,0.87671;
18:23:01.270,0.64502,1.49878,0.99072;
18:23:01.280,0.65991,1.53906,1.02222;
18:23:01.290,0.65991,1.56934,1.00928;
18:23:01.300,0.64819,1.60010,0.98608;
18:23:01.310,0.64380,1.62964,0.95679;
18:23:01.320,0.65601,1.64209,0.89160;
18:23:01.330,0.64624,1.59521,0.82520;
18:23:01.340,0.59814,1.50171,0.75977;
18:23:01.350,0.52905,1.36768,0.66089;
18:23:01.360,0.45288,1.19434,0.57593;
18:23:01.370,0.38550,0.98804,0.49658;
18:23:01.380,0.30542,0.78149,0.43848;
18:23:01.390,0.02588,0.38721,0.48096;
18:23:01.400,-0.00952,0.21802,0.49927;
18:23:01.410,-0.01709,0.12646,0.48389;
18:23:01.420,-0.02954,0.05005,0.44727;
18:23:01.430,-0.01978,-0.02246,0.39282;
18:23:01.440,-0.00854,-0.12012,0.37915;
18:23:01.450,0.00391,-0.21899,0.37231;
18:23:01.460,0.01904,-0.24194,0.37476;
18:23:01.470,0.01147,-0.27905,0.36841;
18:23:01.480,-0.02783,-0.32813,0.36353;
18:23:01.490,-0.08545,-0.35059,0.41577;
18:23:01.500,-0.11987,-0.36060,0.46021;
18:23:01.510,-0.15820,-0.42285,0.45557;
18:23:01.520,-0.12549,-0.52979,0.42725;
18:23:01.530,-0.01221,-0.58911,0.41284;
18:23:01.540,0.06787,-0.48706,0.45337;
18:23:01.550,0.08496,-0.40112,0.49561;
18:23:01.560,0.08179,-0.46558,0.54224;
18:23:01.570,0.08545,-0.60278,0.66553;
18:23:01.580,0.06543,-0.97559,0.85425;
18:23:01.590,0.17847,-1.44971,0.65869;
18:23:01.600,0.35327,-1.07300,0.52295;
18:23:01.610,0.45581,-0.66724,0.51489;
18:23:01.620,0.61743,-0.37793,0.40186;
18:23:01.630,0.79419,0.01294,-0.00122;
18:23:01.640,0.84863,0.55493,-0.76099;
18:23:01.650,0.54907,0.98657,-2.37891;
18:23:01.660,1.01636,1.54297,-5.24609;
18:23:01.670,0.18286,1.50464,-4.29272;
18:23:01.680,-0.76538,0.62866,-1.27905;
18:23:01.690,-0.54028,0.73877,-0.01318;
18:23:01.700,1.14209,1.06470,0.11255;
18:23:01.710,2.16919,0.21265,-0.53101;
18:23:01.720,2.00854,0.67627,-0.98804;
18:23:01.730,1.41577,1.31299,-1.38940;
18:23:01.740,1.38940,1.25000,-1.65723;
18:23:01.750,1.28662,0.93311,-1.47046;
18:23:01.760,1.05957,0.51343,-1.07422;
18:23:01.770,0.72534,0.42163,-0.84204;
18:23:01.780,0.40161,0.49146,-0.79663;
18:23:01.790,0.25977,0.67236,-0.82471;
18:23:01.800,0.25269,0.77246,-0.92310;
18:23:01.810,0.28638,0.86572,-1.01782;
18:23:01.820,0.25146,0.88501,-1.08252;
18:23:01.830,0.17603,0.80762,-1.07349;
18:23:01.840,0.15063,0.69653,-0.98608;
18:23:01.850,0.16846,0.60352,-0.87158;
18:23:01.860,0.21533,0.52979,-0.77686;
18:23:01.870,0.27832,0.51514,-0.67407;
18:23:01.880,0.31714,0.50879,-0.65088;
18:23:01.890,0.30078,0.43237,-0.72168;
18:23:01.900,0.33252,0.36597,-0.82031;
18:23:01.910,0.42944,0.45654,-0.89209;
18:23:01.920,0.45117,0.75659,-0.92407;
18:23:01.930,0.35449,0.88525,-0.89063;
18:23:01.940,0.31299,0.90063,-0.83398;
18:23:01.950,0.24097,0.71851,-0.73657;
18:23:01.960,0.24219,0.68604,-0.65942;
18:23:01.970,0.23267,0.64404,-0.53809;
18:23:01.980,0.23389,0.65698,-0.42554;
18:23:01.990,0.21729,0.72363,-0.31006;
18:23:02.000,0.18188,0.73071,-0.22949;
18:23:02.010,0.12891,0.74878,-0.11499;
18:23:02.020,0.17651,0.87598,-0.07227;
18:23:02.030,0.12476,0.81470,-0.08228;
18:23:02.040,0.01196,0.76123,-0.01636;
18:23:02.050,-0.02246,0.85742,-0.05347;
18:23:02.060,-0.04224,0.76392,-0.09058;
18:23:02.070,-0.01001,0.64600,-0.08862;
18:23:02.080,-0.03662,0.57349,0.05884;
18:23:02.090,-0.06787,0.47900,0.08179;
18:23:02.100,-0.08105,0.40942,0.03101;
18:23:02.110,-0.10889,0.41113,0.07813;
18:23:02.120,-0.13818,0.38940,0.14307;
18:23:02.130,-0.15771,0.32739,0.35522;
18:23:02.140,-0.14868,0.25610,0.60132;
18:23:02.150,-0.10205,0.37476,0.87451;
18:23:02.160,-0.02686,0.54614,1.08545;
18:23:02.170,0.25342,0.64209,1.25000;
18:23:02.180,0.35645,0.57153,1.17163;
18:23:02.190,0.39111,0.66113,1.07739;
18:23:02.200,0.39526,0.82642,1.00146;
18:23:02.210,0.44678,0.92969,0.82788;
18:23:02.220,0.62769,1.07080,0.28760;
18:23:02.230,0.43408,0.32349,0.86646;
18:23:02.240,0.52319,0.77295,0.74731;
18:23:02.250,0.47437,0.63647,0.70728;
18:23:02.260,0.41650,0.51440,0.61670;
18:23:02.270,0.39111,0.44263,0.58008;
18:23:02.280,0.37695,0.57593,0.62573;
18:23:02.290,0.38794,0.66431,0.65967;
18:23:02.300,0.36475,0.57056,0.68042;
18:23:02.310,0.29761,0.49805,0.74414;
18:23:02.320,0.28052,0.45996,0.73560;
18:23:02.330,0.29175,0.47583,0.69897;
18:23:02.340,0.26733,0.51221,0.69092;
18:23:02.350,0.25000,0.53735,0.69873;
18:23:02.360,0.23853,0.55811,0.69312;
18:23:02.370,0.21338,0.59814,0.68506;
18:23:02.380,0.20776,0.61938,0.68164;
18:23:02.390,0.22266,0.58521,0.68433;
18:23:02.400,0.25391,0.54272,0.68262;
18:23:02.410,0.29199,0.58252,0.69556;
18:23:02.420,0.33716,0.61768,0.73022;
18:23:02.430,0.39771,0.63354,0.78662;
18:23:02.440,0.55640,0.62231,1.06494;
18:23:02.450,0.64331,0.63599,1.21167;
18:23:02.460,0.72192,0.64771,1.28833;
18:23:02.470,0.78345,0.64551,1.30371;
18:23:02.480,0.87305,0.66113,1.28467;
18:23:02.490,0.97021,0.67212,1.28540;
18:23:02.500,1.04517,0.66821,1.31299;
18:23:02.510,1.06348,0.61816,1.24731;
18:23:02.520,0.93262,0.59180,1.14404;
18:23:02.530,0.83862,0.53931,1.06763;
18:23:02.540,0.75049,0.50830,0.97729;
18:23:02.550,0.65991,0.47119,0.90161;
18:23:02.560,0.56396,0.42017,0.83716;
18:23:02.570,0.49487,0.36597,0.80688;
18:23:02.580,0.44946,0.33716,0.77393;
18:23:02.590,0.40405,0.37915,0.72192;
18:23:02.600,0.35693,0.40210,0.67065;
18:23:02.610,0.32324,0.37866,0.62646;
18:23:02.620,0.30713,0.38428,0.58447;
18:23:02.630,0.28589,0.40063,0.55151;
18:23:02.640,0.26855,0.37817,0.54614;
18:23:02.650,0.26904,0.31665,0.56909;
18:23:02.660,0.27441,0.29199,0.59570;
18:23:02.670,0.29199,0.31885,0.61963;
18:23:02.680,0.32324,0.32080,0.62451;
18:23:02.690,0.34717,0.30225,0.60620;
18:23:02.700,0.36035,0.29736,0.59326;
18:23:02.710,0.37476,0.27783,0.59668;
18:23:02.720,0.39966,0.23706,0.61328;
18:23:02.730,0.43140,0.23291,0.64966;
18:23:02.740,0.46802,0.26367,0.70703;
18:23:02.750,0.51782,0.28833,0.75171;
18:23:02.760,0.57739,0.31250,0.77856;
18:23:02.770,0.62012,0.33472,0.78809;
18:23:02.780,0.64941,0.32886,0.79980;
18:23:02.790,0.71533,0.32349,0.85034;
18:23:02.800,0.84839,0.47070,0.88208;
18:23:02.810,0.93799,0.47144,0.89014;
18:23:02.820,0.98413,0.49219,0.86353;
18:23:02.830,0.98047,0.50342,0.83374;
18:23:02.840,0.93701,0.51074,0.82495;
18:23:02.850,0.88892,0.51514,0.81763;
18:23:02.860,0.84131,0.52344,0.81128;
18:23:02.870,0.79224,0.55444,0.81006;
18:23:02.880,0.76270,0.61548,0.79346;
18:23:02.890,0.75732,0.66626,0.77832;
18:23:02.900,0.74756,0.67603,0.74634;
18:23:02.910,0.71021,0.67334,0.70093;
18:23:02.920,0.68262,0.67334,0.68140;
18:23:02.930,0.67578,0.68433,0.68628;
18:23:02.940,0.68335,0.70020,0.69360;
18:23:02.950,0.69653,0.69531,0.68921;
18:23:02.960,0.70898,0.67822,0.67480;
18:23:02.970,0.71875,0.66797,0.64917;
18:23:02.980,0.73877,0.65771,0.63525;
18:23:02.990,0.76636,0.63696,0.62256;
18:23:03.000,0.77295,0.63477,0.62012;
18:23:03.010,0.77563,0.63379,0.62573;
18:23:03.020,0.76270,0.60596,0.62085;
18:23:03.030,0.71509,0.59253,0.61035;
18:23:03.040,0.65918,0.57275,0.58667;
18:23:03.050,0.60425,0.52954,0.56396;
18:23:03.060,0.55542,0.47754,0.54834;
18:23:03.070,0.52832,0.46606,0.53784;
18:23:03.080,0.50098,0.48706,0.52148;
18:23:03.090,0.47021,0.47900,0.51685;
18:23:03.100,0.41895,0.40308,0.53394;
18:23:03.110,0.39966,0.41089,0.49268;
18:23:03.120,0.39429,0.38428,0.48413;
18:23:03.130,0.39453,0.37134,0.48706;
18:23:03.140,0.39038,0.39551,0.48975;
18:23:03.150,0.37695,0.41406,0.50464;
18:23:03.160,0.36279,0.41162,0.52954;
18:23:03.170,0.35669,0.41650,0.57202;
18:23:03.180,0.36328,0.43701,0.60083;
18:23:03.190,0.37402,0.46094,0.59204;
18:23:03.200,0.37866,0.48267,0.54663;
18:23:03.210,0.36475,0.50635,0.51563;
18:23:03.220,0.34399,0.49023,0.55518;
18:23:03.230,0.33838,0.43433,0.60669;
18:23:03.240,0.33667,0.44360,0.65552;
18:23:03.250,0.33228,0.48730,0.70386;
18:23:03.260,0.33301,0.52539,0.71997;
18:23:03.270,0.34058,0.59009,0.67603;
18:23:03.280,0.33423,0.64551,0.62915;
18:23:03.290,0.31152,0.68091,0.66211;
18:23:03.300,0.29565,0.70825,0.72607;
18:23:03.310,0.30835,0.72046,0.78467;
18:23:03.320,0.38013,0.78711,0.84058;
18:23:03.330,0.40649,0.84375,0.83350;
18:23:03.340,0.43066,0.92041,0.80176;
18:23:03.350,0.44482,0.98364,0.82788;
18:23:03.360,0.47803,1.05176,1.01538;
18:23:03.370,0.56274,1.06665,0.96094;
18:23:03.380,0.73462,1.47266,0.96973;
18:23:03.390,0.77100,1.35791,0.88916;
18:23:03.400,0.81738,1.13916,0.83667;
18:23:03.410,0.82788,1.28052,0.60254;
18:23:03.420,0.82861,1.45874,0.47583;
18:23:03.430,0.78711,1.40747,0.59229;
18:23:03.440,0.66919,1.26050,0.79004;
18:23:03.450,0.53223,1.08813,0.93701;
18:23:03.460,0.41406,0.88794,1.11548;
18:23:03.470,0.33496,0.61890,1.27832;
18:23:03.480,0.23975,0.41138,1.38574;
18:23:03.490,0.09961,0.45874,1.53101;
18:23:03.500,0.06299,0.67871,1.60083;
18:23:03.510,0.25073,0.84155,1.38940;
18:23:03.520,0.35229,0.76660,1.02612;
18:23:03.530,0.22705,0.68140,0.79590;
18:23:03.540,0.17700,0.99951,0.48926;
18:23:03.550,0.23022,1.09692,0.17017;
18:23:03.560,0.24683,0.69800,0.11279;
18:23:03.570,0.20776,0.23047,0.16919;
18:23:03.580,0.17383,-0.05469,0.19800;
18:23:03.590,0.17627,-0.07153,0.20801;
18:23:03.600,0.18066,0.01221,0.21973;
18:23:03.610,0.17725,0.06421,0.24756;
18:23:03.620,0.18286,0.09790,0.26416;
18:23:03.630,0.18164,0.11426,0.27832;
18:23:03.640,0.18506,0.12842,0.27002;
18:23:03.650,0.17310,0.18945,0.23950;
18:23:03.660,0.13794,0.27002,0.18701;
18:23:03.670,0.05371,0.49878,0.12109;
18:23:03.680,0.02979,0.61816,0.21069;
18:23:03.690,0.02832,0.66016,0.24072;
18:23:03.700,0.00928,0.65381,0.25488;
18:23:03.710,-0.01123,0.65015,0.26514;
18:23:03.720,-0.04565,0.64795,0.27246;
18:23:03.730,-0.06787,0.64917,0.29272;
18:23:03.740,-0.07837,0.69214,0.31812;
18:23:03.750,-0.07397,0.76172,0.35962;
18:23:03.760,-0.06201,0.82642,0.40967;
18:23:03.770,-0.03394,0.90088,0.43701;
18:23:03.780,0.01270,0.96411,0.42749;
18:23:03.790,0.04834,0.99316,0.40698;
18:23:03.800,0.09058,1.00244,0.34229;
18:23:03.810,0.12134,1.01367,0.31348;
18:23:03.820,0.14966,1.05664,0.29443;
18:23:03.830,0.17212,1.09424,0.30688;
18:23:03.840,0.17041,1.12207,0.32397;
18:23:03.850,0.17236,1.15527,0.32275;
18:23:03.860,0.20557,1.18652,0.33032;
18:23:03.870,0.21875,1.19360,0.32886;
18:23:03.880,0.20996,1.15625,0.32202;
18:23:03.890,0.21021,1.13989,0.31982;
18:23:03.900,0.20508,1.10938,0.32178;
18:23:03.910,0.20654,1.18091,0.35107;
18:23:03.920,0.23071,1.31006,0.37036;
18:23:03.930,0.32300,1.24609,-0.14331;
18:23:03.940,0.28979,1.22900,-0.15527;
18:23:03.950,0.25610,1.22412,-0.14722;
18:23:03.960,0.20361,1.20044,-0.14478;
18:23:03.970,0.14307,1.15625,-0.13452;
18:23:03.980,0.08521,1.14795,-0.12598;
18:23:03.990,0.02319,1.18628,-0.13574;
18:23:04.000,-0.03857,1.24683,-0.14673;
18:23:04.010,-0.09009,1.26416,-0.16260;
18:23:04.020,-0.11743,1.23657,-0.18823;
18:23:04.030,-0.12866,1.24268,-0.22656;
18:23:04.040,-0.13110,1.23218,-0.26953;
18:23:04.050,-0.13330,1.18408,-0.30933;
18:23:04.060,-0.12769,1.16162,-0.33252;
18:23:04.070,-0.13550,1.14380,-0.36084;
18:23:04.080,-0.14893,1.14014,-0.36108;
18:23:04.090,-0.13232,1.15576,-0.38647;
18:23:04.100,-0.11206,1.15991,-0.41260;
18:23:04.110,-0.11035,1.15869,-0.44434;
18:23:04.120,-0.10107,1.17627,-0.47949;
18:23:04.130,-0.09058,1.15918,-0.49902;
18:23:04.140,-0.07324,1.13135,-0.49976;
18:23:04.150,-0.08130,1.13354,-0.48535;
18:23:04.160,-0.11890,1.15405,-0.48389;
18:23:04.170,-0.14575,1.20020,-0.49585;
18:23:04.180,-0.20605,1.22632,-0.51147;
18:23:04.190,-0.23462,1.27930,-0.59033;
18:23:04.200,-0.20996,1.29321,-0.59741;
18:23:04.210,-0.17920,1.28809,-0.57227;
18:23:04.220,-0.17041,1.25391,-0.53589;
18:23:04.230,-0.17676,1.24634,-0.50269;
18:23:04.240,-0.16479,1.25513,-0.50000;
18:23:04.250,-0.17139,1.21338,-0.50537;
18:23:04.260,-0.19409,1.15820,-0.51514;
18:23:04.270,-0.22363,1.10742,-0.49951;
18:23:04.280,-0.25415,1.06104,-0.47583;
18:23:04.290,-0.26318,1.04028,-0.47046;
18:23:04.300,-0.24658,1.01733,-0.48682;
18:23:04.310,-0.22778,1.00830,-0.50024;
18:23:04.320,-0.22144,0.98486,-0.50830;
18:23:04.330,-0.23120,0.94849,-0.51294;
18:23:04.340,-0.24951,0.90112,-0.51025;
18:23:04.350,-0.25708,0.84253,-0.50635;
18:23:04.360,-0.23877,0.74634,-0.50781;
18:23:04.370,-0.21753,0.63745,-0.51221;
18:23:04.380,-0.24878,0.51660,-0.51001;
18:23:04.390,-0.31689,0.40356,-0.52197;
18:23:04.400,-0.33350,0.34302,-0.52271;
18:23:04.410,-0.29443,0.28320,-0.51587;
18:23:04.420,-0.24658,0.23120,-0.52417;
18:23:04.430,-0.17676,0.20264,-0.51929;
18:23:04.440,-0.09180,0.18970,-0.51929;
18:23:04.450,-0.03931,0.15259,-0.54297;
18:23:04.460,-0.04443,0.06226,-0.57178;
18:23:04.470,-0.06567,-0.03906,-0.57129;
18:23:04.480,-0.05078,-0.09155,-0.57471;
18:23:04.490,-0.08691,-0.09180,-0.59106;
18:23:04.500,-0.09692,-0.08130,-0.58374;
18:23:04.510,-0.07202,-0.10767,-0.56982;
18:23:04.520,0.05493,-0.27124,-0.52124;
18:23:04.530,0.22144,-0.49951,-0.41187;
18:23:04.540,0.20508,-0.57983,-0.36646;
18:23:04.550,0.10376,-0.50854,-0.37036;
18:23:04.560,-0.04297,-0.33252,-0.43262;
18:23:04.570,-0.19849,-0.19312,-0.54785;
18:23:04.580,-0.23706,-0.20630,-0.67017;
18:23:04.590,-0.27222,-0.24756,-0.86792;
18:23:04.600,-0.19751,-0.29224,-1.04126;
18:23:04.610,-0.16016,-0.32056,-1.21118;
18:23:04.620,-0.33252,-0.04321,-1.22437;
18:23:04.630,-0.25830,0.20361,-1.16235;
18:23:04.640,-0.58618,0.70215,-1.03174;
18:23:04.650,-0.83301,1.27612,-0.60889;
18:23:04.660,-0.26367,0.60132,-0.10571;
18:23:04.670,-0.31812,-0.30591,-0.19556;
18:23:04.680,-0.50610,-0.42310,-0.43994;
18:23:04.690,-0.44775,0.10596,-0.62378;
18:23:04.700,-0.61621,0.71680,-0.94678;
18:23:04.710,-0.62939,0.37280,-1.05859;
18:23:04.720,-0.59790,0.16846,-1.01147;
18:23:04.730,-0.59863,0.17944,-0.98047;
18:23:04.740,-0.56616,0.27637,-0.94922;
18:23:04.750,-0.71143,0.48730,-0.98145;
18:23:04.760,-0.73242,0.53979,-0.93921;
18:23:04.770,-0.69580,0.56030,-0.91675;
18:23:04.780,-0.65283,0.57153,-0.88770;
18:23:04.790,-0.56689,0.58325,-0.85059;
18:23:04.800,-0.46338,0.49438,-0.82471;
18:23:04.810,-0.50439,0.52246,-0.89844;
18:23:04.820,-0.49707,0.53198,-0.92334;
18:23:04.830,-0.47998,0.49463,-0.91846;
18:23:04.840,-0.50171,0.49438,-0.89307;
18:23:04.850,-0.46606,0.41602,-0.82520;
18:23:04.860,-0.47900,0.37695,-0.80713;
18:23:04.870,-0.44971,0.34814,-0.78638;
18:23:04.880,-0.47949,0.37451,-0.80884;
18:23:04.890,-0.52100,0.39917,-0.78516;
18:23:04.900,-0.52466,0.40967,-0.74658;
18:23:04.910,-0.50000,0.40259,-0.70801;
18:23:04.920,-0.52002,0.38965,-0.69653;
18:23:04.930,-0.51831,0.37720,-0.69019;
18:23:04.940,-0.49731,0.37476,-0.67944;
18:23:04.950,-0.51001,0.38232,-0.68970;
18:23:04.960,-0.49146,0.38403,-0.68530;
18:23:04.970,-0.49658,0.36963,-0.66406;
18:23:04.980,-0.48145,0.34058,-0.61182;
18:23:04.990,-0.45728,0.29224,-0.57813;
18:23:05.000,-0.49585,0.28198,-0.56567;
18:23:05.010,-0.50049,0.29834,-0.54248;
18:23:05.020,-0.48340,0.29102,-0.52563;
18:23:05.030,-0.49683,0.30493,-0.52661;
18:23:05.040,-0.47144,0.25000,-0.53638;
18:23:05.050,-0.44775,0.20117,-0.55298;
18:23:05.060,-0.40479,0.22388,-0.60522;
18:23:05.070,-0.41162,0.26221,-0.62500;
18:23:05.080,-0.45435,0.26880,-0.64063;
18:23:05.090,-0.49365,0.27393,-0.64526;
18:23:05.100,-0.51001,0.29980,-0.64307;
18:23:05.110,-0.46680,0.31299,-0.62793;
18:23:05.120,-0.42139,0.34131,-0.59204;
18:23:05.130,-0.33521,0.37988,-0.55591;
18:23:05.140,-0.46875,0.56689,-0.48682;
18:23:05.150,-0.60571,0.69507,-0.45264;
18:23:05.160,-0.57227,0.64722,-0.41626;
18:23:05.170,-0.58765,0.58716,-0.34619;
18:23:05.180,-0.57520,0.49048,-0.31616;
18:23:05.190,-0.60132,0.39795,-0.31104;
18:23:05.200,-0.64844,0.35986,-0.33789;
18:23:05.210,-0.68970,0.38940,-0.37354;
18:23:05.220,-0.71240,0.45020,-0.39648;
18:23:05.230,-0.74097,0.48706,-0.41211;
18:23:05.240,-0.80127,0.48364,-0.41577;
18:23:05.250,-0.87012,0.47021,-0.39307;
18:23:05.260,-0.91333,0.44531,-0.36157;
18:23:05.270,-0.97046,0.46216,-0.26636;
18:23:05.280,-0.98682,0.50806,-0.24121;
18:23:05.290,-0.99072,0.56128,-0.20557;
18:23:05.300,-0.98901,0.61401,-0.17529;
18:23:05.310,-0.98169,0.66113,-0.16040;
18:23:05.320,-0.96997,0.70386,-0.14697;
18:23:05.330,-0.95288,0.72729,-0.14917;
18:23:05.340,-0.92920,0.76855,-0.18091;
18:23:05.350,-0.88623,0.74976,-0.19897;
18:23:05.360,-0.84863,0.69849,-0.22168;
18:23:05.370,-0.83252,0.64453,-0.24097;
18:23:05.380,-0.83667,0.61475,-0.24902;
18:23:05.390,-0.84277,0.60352,-0.25293;
18:23:05.400,-0.85010,0.60913,-0.21899;
18:23:05.410,-0.85938,0.62207,-0.19897;
18:23:05.420,-0.85938,0.65283,-0.18311;
18:23:05.430,-0.85571,0.68872,-0.17041;
18:23:05.440,-0.84570,0.72485,-0.16992;
18:23:05.450,-0.82886,0.74707,-0.17090;
18:23:05.460,-0.80981,0.74951,-0.17432;
18:23:05.470,-0.79419,0.73242,-0.17407;
18:23:05.480,-0.76953,0.70654,-0.17676;
18:23:05.490,-0.73901,0.70435,-0.18384;
18:23:05.500,-0.72168,0.72046,-0.19507;
18:23:05.510,-0.70239,0.72046,-0.21216;
18:23:05.520,-0.68896,0.70532,-0.22241;
18:23:05.530,-0.68262,0.67920,-0.22803;
18:23:05.540,-0.68115,0.65210,-0.22729;
18:23:05.550,-0.67041,0.64160,-0.23022;
18:23:05.560,-0.65161,0.64380,-0.23315;
18:23:05.570,-0.64648,0.64697,-0.23145;
18:23:05.580,-0.64868,0.64600,-0.22412;
18:23:05.590,-0.65674,0.64722,-0.22217;
18:23:05.600,-0.66211,0.65771,-0.21729;
18:23:05.610,-0.66284,0.67798,-0.21289;
18:23:05.620,-0.66113,0.70239,-0.21191;
18:23:05.630,-0.66357,0.73730,-0.21606;
18:23:05.640,-0.65039,0.75684,-0.24487;
18:23:05.650,-0.63916,0.75952,-0.25122;
18:23:05.660,-0.62476,0.74683,-0.25244;
18:23:05.670,-0.60352,0.72852,-0.26343;
18:23:05.680,-0.57593,0.72510,-0.27271;
18:23:05.690,-0.55542,0.73218,-0.28027;
18:23:05.700,-0.54858,0.74487,-0.29248;
18:23:05.710,-0.55786,0.75830,-0.30908;
18:23:05.720,-0.57202,0.76831,-0.31909;
18:23:05.730,-0.57788,0.77661,-0.32568;
18:23:05.740,-0.57300,0.77710,-0.33057;
18:23:05.750,-0.56934,0.77393,-0.32886;
18:23:05.760,-0.57251,0.77783,-0.31787;
18:23:05.770,-0.57104,0.78735,-0.30859;
18:23:05.780,-0.56616,0.79858,-0.30859;
18:23:05.790,-0.56641,0.79810,-0.29956;
18:23:05.800,-0.57642,0.78809,-0.28564;
18:23:05.810,-0.58301,0.77173,-0.26953;
18:23:05.820,-0.57983,0.76245,-0.24976;
18:23:05.830,-0.56372,0.76465,-0.23169;
18:23:05.840,-0.54102,0.78516,-0.21191;
18:23:05.850,-0.52441,0.81787,-0.20361;
18:23:05.860,-0.51831,0.85059,-0.20752;
18:23:05.870,-0.51929,0.87427,-0.21875;
18:23:05.880,-0.52588,0.88062,-0.22925;
18:23:05.890,-0.53101,0.88281,-0.23511;
18:23:05.900,-0.52759,0.88550,-0.24731;
18:23:05.910,-0.52124,0.88013,-0.24854;
18:23:05.920,-0.51147,0.85913,-0.24243;
18:23:05.930,-0.49707,0.77051,-0.23755;
18:23:05.940,-0.49146,0.76318,-0.23999;
18:23:05.950,-0.48047,0.76001,-0.24170;
18:23:05.960,-0.47070,0.74634,-0.24243;
18:23:05.970,-0.46265,0.73120,-0.24390;
18:23:05.980,-0.45557,0.74146,-0.24536;
18:23:05.990,-0.44629,0.76001,-0.24292;
18:23:06.000,-0.43970,0.76709,-0.23291;
18:23:06.010,-0.43872,0.76050,-0.21851;
18:23:06.020,-0.44141,0.75049,-0.20239;
18:23:06.030,-0.44629,0.74878,-0.18921;
18:23:06.040,-0.45215,0.74121,-0.18018;
18:23:06.050,-0.45874,0.73462,-0.16504;
18:23:06.060,-0.46289,0.74243,-0.14795;
18:23:06.070,-0.45825,0.77075,-0.13037;
18:23:06.080,-0.44678,0.81763,-0.11206;
18:23:06.090,-0.43896,0.87451,-0.09692;
18:23:06.100,-0.43188,0.93994,-0.08936;
18:23:06.110,-0.42407,0.99854,-0.08911;
18:23:06.120,-0.42114,1.07324,-0.08276;
18:23:06.130,-0.42944,1.08765,-0.09448;
18:23:06.140,-0.43701,1.08350,-0.10132;
18:23:06.150,-0.44092,1.07764,-0.11230;
18:23:06.160,-0.43994,1.08130,-0.12036;
18:23:06.170,-0.43140,1.09375,-0.12695;
18:23:06.180,-0.41406,1.11987,-0.13916;
18:23:06.190,-0.39209,1.13721,-0.16211;
18:23:06.200,-0.37793,1.14185,-0.18115;
18:23:06.210,-0.36475,1.13184,-0.21216;
18:23:06.220,-0.32593,1.02588,-0.24878;
18:23:06.230,-0.32739,0.97656,-0.25513;
18:23:06.240,-0.33228,0.93579,-0.26245;
18:23:06.250,-0.33252,0.91504,-0.26147;
18:23:06.260,-0.32642,0.90771,-0.25635;
18:23:06.270,-0.32471,0.90430,-0.25854;
18:23:06.280,-0.32666,0.90625,-0.25854;
18:23:06.290,-0.33081,0.91260,-0.25171;
18:23:06.300,-0.33813,0.92163,-0.23999;
18:23:06.310,-0.34155,0.92554,-0.23047;
18:23:06.320,-0.34619,0.92578,-0.22070;
18:23:06.330,-0.35327,0.91943,-0.21069;
18:23:06.340,-0.36011,0.90601,-0.20337;
18:23:06.350,-0.36475,0.89600,-0.19775;
18:23:06.360,-0.36694,0.88623,-0.18677;
18:23:06.370,-0.36816,0.87964,-0.17627;
18:23:06.380,-0.37109,0.87720,-0.16626;
18:23:06.390,-0.37549,0.87769,-0.15186;
18:23:06.400,-0.38135,0.87939,-0.13940;
18:23:06.410,-0.38452,0.88354,-0.12524;
18:23:06.420,-0.38647,0.88989,-0.10889;
18:23:06.430,-0.38623,0.89746,-0.09375;
18:23:06.440,-0.38208,0.90991,-0.07983;
18:23:06.450,-0.38037,0.92212,-0.07471;
18:23:06.460,-0.37891,0.93774,-0.07007;
18:23:06.470,-0.37402,0.95703,-0.06372;
18:23:06.480,-0.36792,0.96973,-0.06055;
18:23:06.490,-0.36328,0.98096,-0.06104;
18:23:06.500,-0.35840,0.98389,-0.06885;
18:23:06.510,-0.35425,0.97754,-0.07349;
18:23:06.520,-0.35449,0.95044,-0.08496;
18:23:06.530,-0.35938,0.92578,-0.10645;
18:23:06.540,-0.36255,0.91821,-0.10938;
18:23:06.550,-0.36792,0.91064,-0.11401;
18:23:06.560,-0.37134,0.90771,-0.11768;
18:23:06.570,-0.37622,0.90649,-0.12036;
18:23:06.580,-0.37866,0.90576,-0.12500;
18:23:06.590,-0.37939,0.90479,-0.12817;
18:23:06.600,-0.38428,0.90356,-0.13037;
18:23:06.610,-0.38745,0.90039,-0.13208;
18:23:06.620,-0.38818,0.90259,-0.13110;
18:23:06.630,-0.39038,0.90674,-0.13184;
18:23:06.640,-0.39233,0.90967,-0.13062;
18:23:06.650,-0.39551,0.91309,-0.12964;
18:23:06.660,-0.40088,0.91943,-0.12524;
18:23:06.670,-0.40430,0.92944,-0.12012;
18:23:06.680,-0.40771,0.94189,-0.11792;
18:23:06.690,-0.40625,0.95044,-0.11743;
18:23:06.700,-0.40820,0.95288,-0.11548;
18:23:06.710,-0.41113,0.94995,-0.11450;
18:23:06.720,-0.41089,0.94653,-0.11255;
18:23:06.730,-0.41504,0.93994,-0.11206;
18:23:06.740,-0.41577,0.93726,-0.10718;
18:23:06.750,-0.41919,0.93530,-0.10181;
18:23:06.760,-0.42285,0.93652,-0.09668;
18:23:06.770,-0.42480,0.94507,-0.09155;
18:23:06.780,-0.42749,0.95386,-0.09082;
18:23:06.790,-0.43188,0.95679,-0.09595;
18:23:06.800,-0.43164,0.94922,-0.09839;
18:23:06.810,-0.43237,0.93628,-0.10205;
18:23:06.820,-0.43335,0.92480,-0.10449;
18:23:06.830,-0.43140,0.91846,-0.09985;
18:23:06.840,-0.42651,0.91211,-0.09863;
18:23:06.850,-0.42578,0.91016,-0.09912;
18:23:06.860,-0.42456,0.91284,-0.09595;
18:23:06.870,-0.42261,0.90991,-0.10059;
18:23:06.880,-0.42139,0.90918,-0.09961;
18:23:06.890,-0.41919,0.90063,-0.10229;
18:23:06.900,-0.41846,0.89185,-0.10571;
18:23:06.910,-0.41528,0.88574,-0.10425;
18:23:06.920,-0.41235,0.88354,-0.09912;
18:23:06.930,-0.40845,0.89185,-0.09326;
18:23:06.940,-0.40356,0.89429,-0.09546;
18:23:06.950,-0.40234,0.89697,-0.09717;
18:23:06.960,-0.40161,0.90137,-0.09961;
18:23:06.970,-0.39795,0.90137,-0.10229;
18:23:06.980,-0.39453,0.90112,-0.10254;
18:23:06.990,-0.39844,0.90210,-0.10498;
18:23:07.000,-0.39771,0.90479,-0.10400;
18:23:07.010,-0.39673,0.90747,-0.09961;
18:23:07.020,-0.39526,0.91431,-0.10010;
18:23:07.030,-0.39185,0.92261,-0.10059;
18:23:07.040,-0.39478,0.92285,-0.10498;
18:23:07.050,-0.39404,0.92212,-0.10742;
18:23:07.060,-0.39404,0.92578,-0.11108;
18:23:07.070,-0.39380,0.91040,-0.13159;
18:23:07.080,-0.39282,0.90771,-0.13110;
18:23:07.090,-0.39331,0.90454,-0.13232;
18:23:07.100,-0.39307,0.90552,-0.13037;
18:23:07.110,-0.39502,0.90967,-0.12646;
18:23:07.120,-0.39380,0.90674,-0.13135;
18:23:07.130,-0.39160,0.90356,-0.13550;
18:23:07.140,-0.39185,0.90625,-0.13379;
18:23:07.150,-0.38745,0.90771,-0.13599;
18:23:07.160,-0.38623,0.90942,-0.14185;
18:23:07.170,-0.38696,0.91016,-0.14380;
18:23:07.180,-0.38672,0.90918,-0.14185;
18:23:07.190,-0.38232,0.91260,-0.13647;
18:23:07.200,-0.37939,0.91211,-0.13770;
18:23:07.210,-0.38013,0.91064,-0.13428;
18:23:07.220,-0.37891,0.91724,-0.12671;
18:23:07.230,-0.37524,0.92285,-0.12573;
18:23:07.240,-0.37402,0.92407,-0.12866;
18:23:07.250,-0.37329,0.91992,-0.12842;
18:23:07.260,-0.37280,0.91553,-0.12866;
18:23:07.270,-0.37329,0.91431,-0.13135;
18:23:07.280,-0.37256,0.91016,-0.13208;
18:23:07.290,-0.37354,0.90601,-0.13037;
18:23:07.300,-0.37500,0.90576,-0.12646;
18:23:07.310,-0.37500,0.91260,-0.12476;
18:23:07.320,-0.37476,0.91284,-0.12402;
18:23:07.330,-0.37646,0.91333,-0.12524;
18:23:07.340,-0.38086,0.91724,-0.12549;
18:23:07.350,-0.38062,0.91675,-0.12793;
18:23:07.360,-0.38013,0.92041,-0.13257;
18:23:07.370,-0.37573,0.92334,-0.14282;
18:23:07.380,-0.37329,0.91431,-0.13989;
18:23:07.390,-0.37769,0.90820,-0.14160;
18:23:07.400,-0.37817,0.90112,-0.14209;
18:23:07.410,-0.38062,0.89844,-0.14209;
18:23:07.420,-0.38257,0.90161,-0.13770;
18:23:07.430,-0.38379,0.90625,-0.13306;
18:23:07.440,-0.38721,0.91138,-0.13501;
18:23:07.450,-0.38525,0.91553,-0.13916;
18:23:07.460,-0.38330,0.91602,-0.14282;
18:23:07.470,-0.38306,0.91064,-0.14160;
18:23:07.480,-0.38013,0.90405,-0.14307;
18:23:07.490,-0.37939,0.89917,-0.14722;
18:23:07.500,-0.37598,0.90063,-0.14478;
18:23:07.510,-0.37622,0.90356,-0.14429;
18:23:07.520,-0.37769,0.90601,-0.14502;
18:23:07.530,-0.37866,0.90747,-0.14282;
18:23:07.540,-0.38037,0.90894,-0.14111;
18:23:07.550,-0.38184,0.91162,-0.13794;
18:23:07.560,-0.38623,0.91626,-0.13647;
18:23:07.570,-0.38623,0.92651,-0.13843;
18:23:07.580,-0.38208,0.93066,-0.14111;
18:23:07.590,-0.37695,0.93140,-0.14136;
18:23:07.600,-0.37646,0.93042,-0.14502;
18:23:07.610,-0.37524,0.92407,-0.14722;
18:23:07.620,-0.37354,0.91846,-0.14893;
18:23:07.630,-0.37476,0.91235,-0.14697;
18:23:07.640,-0.37598,0.90845,-0.14282;
18:23:07.650,-0.37695,0.90942,-0.14136;
18:23:07.660,-0.37939,0.91162,-0.14185;
18:23:07.670,-0.37793,0.91260,-0.14575;
18:23:07.680,-0.37378,0.91333,-0.14551;
18:23:07.690,-0.37256,0.90674,-0.14502;
18:23:07.700,-0.37231,0.90381,-0.14575;
18:23:07.710,-0.37158,0.90039,-0.14673;
18:23:07.720,-0.37036,0.89893,-0.14404;
18:23:07.730,-0.37061,0.90479,-0.14478;
18:23:07.740,-0.37036,0.91162,-0.14380;
18:23:07.750,-0.36841,0.92017,-0.14282;
18:23:07.760,-0.36890,0.92407,-0.14087;
18:23:07.770,-0.36621,0.92578,-0.14160;
18:23:07.780,-0.36182,0.92407,-0.14233;
18:23:07.790,-0.36133,0.91870,-0.14282;
18:23:07.800,-0.36108,0.91235,-0.14551;
18:23:07.810,-0.35889,0.90552,-0.14819;
18:23:07.820,-0.35571,0.90186,-0.15063;
18:23:07.830,-0.35303,0.90356,-0.15210;
18:23:07.840,-0.35059,0.90527,-0.15112;
18:23:07.850,-0.35010,0.90381,-0.15161;
18:23:07.860,-0.35010,0.90479,-0.14844;
18:23:07.870,-0.35181,0.90771,-0.15479;
18:23:07.880,-0.35400,0.90991,-0.16040;
18:23:07.890,-0.35449,0.91260,-0.15894;
18:23:07.900,-0.35229,0.91577,-0.16211;
18:23:07.910,-0.35010,0.92114,-0.16113;
18:23:07.920,-0.34888,0.92920,-0.16455;
18:23:07.930,-0.34839,0.93726,-0.16895;
18:23:07.940,-0.34790,0.94482,-0.17212;
18:23:07.950,-0.34595,0.94800,-0.18774;
18:23:07.960,-0.33594,0.93164,-0.19214;
18:23:07.970,-0.33276,0.92676,-0.19922;
18:23:07.980,-0.32446,0.92383,-0.20068;
18:23:07.990,-0.31763,0.93237,-0.19849;
18:23:08.000,-0.30835,0.93872,-0.20264;
18:23:08.010,-0.29932,0.93970,-0.20996;
18:23:08.020,-0.23950,0.96851,-0.21143;
18:23:08.030,-0.23364,0.97144,-0.21753;
18:23:08.040,-0.23047,0.96704,-0.21973;
18:23:08.050,-0.22754,0.96118,-0.22949;
18:23:08.060,-0.22729,0.95581,-0.23730;
18:23:08.070,-0.22876,0.94995,-0.24438;
18:23:08.080,-0.23096,0.94214,-0.25049;
18:23:08.090,-0.23267,0.93262,-0.25610;
18:23:08.100,-0.23389,0.91772,-0.26440;
18:23:08.110,-0.23999,0.89624,-0.27539;
18:23:08.120,-0.25098,0.87427,-0.27930;
18:23:08.130,-0.26538,0.86108,-0.28027;
18:23:08.140,-0.28101,0.87012,-0.28345;
18:23:08.150,-0.29297,0.88037,-0.28101;
18:23:08.160,-0.32153,0.88843,-0.25049;
18:23:08.170,-0.33081,0.89355,-0.23340;
18:23:08.180,-0.33350,0.88062,-0.23096;
18:23:08.190,-0.33423,0.86768,-0.23389;
18:23:08.200,-0.33472,0.85254,-0.24023;
18:23:08.210,-0.33838,0.83472,-0.24658;
18:23:08.220,-0.34277,0.82471,-0.24585;
18:23:08.230,-0.34326,0.81934,-0.24219;
18:23:08.240,-0.34180,0.82129,-0.23315;
18:23:08.250,-0.34497,0.82471,-0.22119;
18:23:08.260,-0.34912,0.83032,-0.21240;
18:23:08.270,-0.35376,0.83398,-0.20508;
18:23:08.280,-0.35913,0.83032,-0.20508;
18:23:08.290,-0.36377,0.82568,-0.20898;
18:23:08.300,-0.36890,0.82471,-0.21313;
18:23:08.310,-0.37305,0.82446,-0.21094;
18:23:08.320,-0.37476,0.82446,-0.20581;
18:23:08.330,-0.36865,0.82764,-0.20508;
18:23:08.340,-0.36060,0.83008,-0.20142;
18:23:08.350,-0.35425,0.84033,-0.20093;
18:23:08.360,-0.34888,0.84961,-0.20825;
18:23:08.370,-0.34497,0.84766,-0.21289;
18:23:08.380,-0.33911,0.84497,-0.21582;
18:23:08.390,-0.33252,0.84277,-0.21631;
18:23:08.400,-0.33008,0.84058,-0.20850;
18:23:08.410,-0.33081,0.83887,-0.20313;
18:23:08.420,-0.33691,0.83643,-0.19067;
18:23:08.430,-0.34644,0.84937,-0.17480;
18:23:08.440,-0.35107,0.87695,-0.16382;
18:23:08.450,-0.35425,0.95215,-0.11108;
18:23:08.460,-0.33569,1.00537,-0.08618;
18:23:08.470,-0.32715,1.02002,-0.06860;
18:23:08.480,-0.33252,1.02588,-0.06250;
18:23:08.490,-0.33789,1.02148,-0.06665;
18:23:08.500,-0.34692,1.01221,-0.06543;
18:23:08.510,-0.35815,1.00708,-0.06104;
18:23:08.520,-0.37183,1.01025,-0.04932;
18:23:08.530,-0.38110,1.02563,-0.02734;
18:23:08.540,-0.38013,1.05957,-0.00244;
18:23:08.550,-0.36841,1.09766,0.02173;
18:23:08.560,-0.35889,1.12231,0.03638;
18:23:08.570,-0.35254,1.12939,0.04370;
18:23:08.580,-0.33984,1.11865,0.04614;
18:23:08.590,-0.32202,1.08496,0.04150;
18:23:08.600,-0.30664,1.04150,0.03076;
18:23:08.610,-0.29907,0.99927,0.01367;
18:23:08.620,-0.29663,0.95337,0.01318;
18:23:08.630,-0.29663,0.91797,0.01880;
18:23:08.640,-0.28833,0.89624,0.01611;
18:23:08.650,-0.28271,0.88208,0.02441;
18:23:08.660,-0.29321,0.88623,0.03760;
18:23:08.670,-0.30957,0.90552,0.05518;
18:23:08.680,-0.32471,0.93872,0.06958;
18:23:08.690,-0.33179,0.97705,0.08496;
18:23:08.700,-0.33618,1.00903,0.09253;
18:23:08.710,-0.33496,1.05322,0.10742;
18:23:08.720,-0.28027,1.07275,0.08423;
18:23:08.730,-0.26660,1.05469,0.06567;
18:23:08.740,-0.26440,1.02148,0.04883;
18:23:08.750,-0.25830,0.99390,0.03931;
18:23:08.760,-0.25342,0.96826,0.04175;
18:23:08.770,-0.25586,0.95044,0.04468;
18:23:08.780,-0.26318,0.94189,0.05493;
18:23:08.790,-0.26978,0.91821,0.05908;
18:23:08.800,-0.27856,0.90283,0.06641;
18:23:08.810,-0.28369,0.89307,0.07300;
18:23:08.820,-0.28613,0.88232,0.07373;
18:23:08.830,-0.29199,0.88525,0.08008;
18:23:08.840,-0.29810,0.90283,0.08667;
18:23:08.850,-0.30566,0.92725,0.08521;
18:23:08.860,-0.31201,0.95386,0.08252;
18:23:08.870,-0.31055,0.97852,0.08423;
18:23:08.880,-0.30518,0.99341,0.08301;
18:23:08.890,-0.29956,1.00049,0.08911;
18:23:08.900,-0.29761,1.00464,0.09351;
18:23:08.910,-0.29663,1.01050,0.08960;
18:23:08.920,-0.29492,1.02148,0.09033;
18:23:08.930,-0.27954,1.04712,0.08716;
18:23:08.940,-0.26440,1.05591,0.08252;
18:23:08.950,-0.25391,1.05933,0.07813;
18:23:08.960,-0.24707,1.06250,0.07739;
18:23:08.970,-0.23853,1.06860,0.07495;
18:23:08.980,-0.22925,1.07593,0.07520;
18:23:08.990,-0.21826,1.07813,0.07129;
18:23:09.000,-0.20532,1.07520,0.05371;
18:23:09.010,-0.17627,1.03369,0.03784;
18:23:09.020,-0.17456,1.01807,0.01343;
18:23:09.030,-0.17090,1.02051,0.00391;
18:23:09.040,-0.16479,1.02246,-0.00244;
18:23:09.050,-0.15527,1.02563,-0.00391;
18:23:09.060,-0.14331,1.02588,-0.00659;
18:23:09.070,-0.13110,1.02441,-0.00830;
18:23:09.080,-0.12134,1.02563,-0.00293;
18:23:09.090,-0.11670,1.02808,0.00415;
18:23:09.100,-0.11719,1.03687,0.01563;
18:23:09.110,-0.12012,1.05054,0.02368;
18:23:09.120,-0.11890,1.06836,0.03955;
18:23:09.130,-0.10840,1.08984,0.05981;
18:23:09.140,-0.09253,1.10913,0.07080;
18:23:09.150,-0.06860,1.11548,0.07251;
18:23:09.160,-0.04224,1.10522,0.06006;
18:23:09.170,-0.02295,1.07495,0.03564;
18:23:09.180,-0.01685,1.02515,0.00708;
18:23:09.190,-0.01318,0.96582,-0.02246;
18:23:09.200,-0.02393,0.91748,-0.04321;
18:23:09.210,-0.04321,0.88696,-0.05762;
18:23:09.220,-0.05859,0.87061,-0.06860;
18:23:09.230,-0.06738,0.88110,-0.06885;
18:23:09.240,-0.06226,0.91748,-0.06372;
18:23:09.250,-0.05322,0.96606,-0.04980;
18:23:09.260,-0.04272,1.00220,-0.03271;
18:23:09.270,-0.02808,1.02539,-0.02319;
18:23:09.280,-0.01123,1.03931,-0.02686;
18:23:09.290,0.01099,0.99170,-0.04980;
18:23:09.300,-0.00415,0.94971,-0.05518;
18:23:09.310,-0.01440,0.93481,-0.05981;
18:23:09.320,-0.02588,0.91992,-0.06152;
18:23:09.330,-0.03711,0.90991,-0.06616;
18:23:09.340,-0.04492,0.90479,-0.06519;
18:23:09.350,-0.05127,0.89795,-0.06616;
18:23:09.360,-0.05469,0.89771,-0.06738;
18:23:09.370,-0.05249,0.90698,-0.06909;
18:23:09.380,-0.05054,0.91870,-0.06885;
18:23:09.390,-0.05054,0.93091,-0.06592;
18:23:09.400,-0.04517,0.94336,-0.06519;
18:23:09.410,-0.03955,0.95215,-0.06006;
18:23:09.420,-0.03345,0.95410,-0.05542;
18:23:09.430,-0.02759,0.95239,-0.05151;
18:23:09.440,-0.02466,0.95313,-0.05396;
18:23:09.450,-0.02466,0.95508,-0.05200;
18:23:09.460,-0.02612,0.95532,-0.05054;
18:23:09.470,-0.02637,0.96021,-0.04932;
18:23:09.480,-0.02686,0.97095,-0.04517;
18:23:09.490,-0.03101,0.98145,-0.04663;
18:23:09.500,-0.03418,0.98999,-0.04541;
18:23:09.510,-0.03589,0.99414,-0.04077;
18:23:09.520,-0.03931,0.99634,-0.04321;
18:23:09.530,-0.03955,0.99756,-0.05078;
18:23:09.540,-0.03809,0.99487,-0.05396;
18:23:09.550,-0.04248,0.98706,-0.05469;
18:23:09.560,-0.04712,0.97754,-0.05518;
18:23:09.570,-0.05151,0.95898,-0.04932;
18:23:09.580,-0.05688,0.94214,-0.04565;
18:23:09.590,-0.05298,0.92383,-0.04443;
18:23:09.600,-0.05225,0.90967,-0.04541;
18:23:09.610,-0.04956,0.90161,-0.04541;
18:23:09.620,-0.04541,0.90088,-0.04614;
18:23:09.630,-0.04614,0.90552,-0.04370;
18:23:09.640,-0.04346,0.91016,-0.04614;
18:23:09.650,-0.03589,0.90967,-0.04248;
18:23:09.660,-0.01904,0.91235,-0.03613;
18:23:09.670,0.00854,0.92310,-0.03833;
18:23:09.680,0.02759,0.91870,-0.04224;
18:23:09.690,0.03442,0.90210,-0.04443;
18:23:09.700,0.03345,0.88232,-0.04346;
18:23:09.710,0.02637,0.85522,-0.03662;
18:23:09.720,0.01660,0.82983,-0.03223;
18:23:09.730,0.00293,0.81714,-0.02173;
18:23:09.740,-0.01929,0.82251,-0.00220;
18:23:09.750,-0.04175,0.84863,0.02100;
18:23:09.760,-0.05322,0.89502,0.03784;
18:23:09.770,-0.05225,0.95410,0.04663;
18:23:09.780,-0.04761,1.00366,0.04834;
18:23:09.790,-0.04565,1.03784,0.06006;
18:23:09.800,-0.04199,1.06348,0.06641;
18:23:09.810,-0.01880,1.11011,0.07153;
18:23:09.820,-0.00098,1.13916,0.07471;
18:23:09.830,0.01416,1.16406,0.07666;
18:23:09.840,0.02734,1.18164,0.06519;
18:23:09.850,0.07056,1.18359,0.04956;
18:23:09.860,0.06885,1.15625,0.04810;
18:23:09.870,0.05737,1.12207,0.04614;
18:23:09.880,0.04736,1.08228,0.03809;
18:23:09.890,0.03833,1.04834,0.02710;
18:23:09.900,0.03418,1.02124,0.00684;
18:23:09.910,0.02490,1.00098,-0.00317;
18:23:09.920,0.01294,0.98560,0.00073;
18:23:09.930,0.00391,0.97632,0.00513;
18:23:09.940,0.00391,0.98169,0.00781;
18:23:09.950,0.00952,1.00684,0.01514;
18:23:09.960,0.01392,1.03906,0.02734;
18:23:09.970,0.01221,1.06079,0.03149;
18:23:09.980,0.00854,1.07007,0.03271;
18:23:09.990,0.01440,1.07520,0.02856;
18:23:10.000,0.02197,1.08032,0.02002;
18:23:10.010,0.02930,1.08154,0.01807;
18:23:10.020,0.03955,1.08203,0.00879;
18:23:10.030,0.05542,1.07593,-0.00146;
18:23:10.040,0.07007,1.07031,-0.00854;
18:23:10.050,0.08276,1.06055,-0.01147;
18:23:10.060,0.09033,1.05615,-0.01514;
18:23:10.070,0.09863,1.07349,-0.01758;
18:23:10.080,0.09961,1.08276,-0.01831;
18:23:10.090,0.09448,1.07959,-0.02173;
18:23:10.100,0.09424,1.06738,-0.02466;
18:23:10.110,0.09912,1.04736,-0.03149;
18:23:10.120,0.10229,1.01929,-0.03735;
18:23:10.130,0.09424,0.94580,-0.01758;
18:23:10.140,0.08032,0.91943,-0.00342;
18:23:10.150,0.06812,0.90308,0.00391;
18:23:10.160,0.05493,0.88379,0.00684;
18:23:10.170,0.04468,0.86328,0.01440;
18:23:10.180,0.03564,0.83716,0.01636;
18:23:10.190,0.02881,0.81372,0.01587;
18:23:10.200,0.02881,0.79834,0.01709;
18:23:10.210,0.02661,0.79150,0.01563;
18:23:10.220,0.03076,0.79712,0.01733;
18:23:10.230,0.04492,0.80688,0.01660;
18:23:10.240,0.06274,0.81519,0.01685;
18:23:10.250,0.08740,0.82690,0.02075;
18:23:10.260,0.11646,0.83545,0.02930;
18:23:10.270,0.14551,0.86157,0.03564;
18:23:10.280,0.18823,0.90161,0.04590;
18:23:10.290,0.25781,0.95972,0.06689;
18:23:10.300,0.34106,1.05054,0.09424;
18:23:10.310,0.51636,1.25684,0.15161;
18:23:10.320,0.57935,1.33032,0.17920;
18:23:10.330,0.63770,1.39478,0.19092;
18:23:10.340,0.68628,1.45239,0.17480;
18:23:10.350,0.71826,1.48389,0.13550;
18:23:10.360,0.74316,1.48633,0.08081;
18:23:10.370,0.73584,1.47339,0.01904;
18:23:10.380,0.70557,1.42749,-0.03638;
18:23:10.390,0.67041,1.36914,-0.09863;
18:23:10.400,0.62378,1.31372,-0.16968;
18:23:10.410,0.35083,1.11230,-0.33179;
18:23:10.420,0.07983,1.15503,-0.54053;
18:23:10.430,-0.10034,1.24634,-0.66504;
18:23:10.440,-0.25903,1.31128,-0.77051;
18:23:10.450,-0.38013,1.32056,-0.85596;
18:23:10.460,-0.46118,1.28735,-0.89990;
18:23:10.470,-0.48315,1.24683,-0.93799;
18:23:10.480,-0.46924,1.22021,-0.96802;
18:23:10.490,-0.43018,1.20947,-0.97900;
18:23:10.500,-0.38257,1.18628,-0.97803;
18:23:10.510,-0.33521,1.15039,-0.97119;
18:23:10.520,-0.27515,1.10889,-0.95898;
18:23:10.530,-0.21094,1.05640,-0.93970;
18:23:10.540,-0.14233,1.01440,-0.91553;
18:23:10.550,-0.07935,0.99951,-0.88354;
18:23:10.560,-0.01929,0.99561,-0.85474;
18:23:10.570,0.03027,0.99756,-0.82007;
18:23:10.580,0.05908,0.99756,-0.77759;
18:23:10.590,0.08105,0.99829,-0.73657;
18:23:10.600,0.09644,0.99951,-0.69897;
18:23:10.610,0.10815,0.99854,-0.65625;
18:23:10.620,0.11548,0.98389,-0.61743;
18:23:10.630,0.12305,0.94678,-0.59009;
18:23:10.640,0.13086,0.89941,-0.56909;
18:23:10.650,0.13599,0.84424,-0.54541;
18:23:10.660,0.13965,0.78833,-0.52783;
18:23:10.670,0.13550,0.72803,-0.51392;
18:23:10.680,0.12964,0.66748,-0.49170;
18:23:10.690,0.13208,0.62061,-0.47217;
18:23:10.700,0.12988,0.56055,-0.40454;
18:23:10.710,0.12964,0.54492,-0.38721;
18:23:10.720,0.12524,0.54370,-0.38354;
18:23:10.730,0.11279,0.53320,-0.38281;
18:23:10.740,0.10376,0.52612,-0.38477;
18:23:10.750,0.10107,0.52319,-0.38354;
18:23:10.760,0.10645,0.51904,-0.38306;
18:23:10.770,0.11304,0.51367,-0.38599;
18:23:10.780,0.11694,0.50903,-0.38306;
18:23:10.790,0.11768,0.50098,-0.38403;
18:23:10.800,0.11353,0.49023,-0.38525;
18:23:10.810,0.10547,0.48096,-0.38477;
18:23:10.820,0.09912,0.46777,-0.38306;
18:23:10.830,0.09839,0.45215,-0.38354;
18:23:10.840,0.10132,0.43628,-0.38403;
18:23:10.850,0.10327,0.41846,-0.37622;
18:23:10.860,0.10645,0.40625,-0.37476;
18:23:10.870,0.11133,0.40234,-0.36938;
18:23:10.880,0.11914,0.40210,-0.36133;
18:23:10.890,0.12891,0.40112,-0.36035;
18:23:10.900,0.13208,0.39355,-0.35938;
18:23:10.910,0.12915,0.37915,-0.35303;
18:23:10.920,0.12744,0.36108,-0.34961;
18:23:10.930,0.13403,0.36475,-0.33472;
18:23:10.940,0.14209,0.39111,-0.30713;
18:23:10.950,0.16577,0.43115,-0.28418;
18:23:10.960,0.20728,0.48511,-0.28174;
18:23:10.970,0.25415,0.56982,-0.27808;
18:23:10.980,0.28394,0.69604,-0.28467;
18:23:10.990,0.38843,1.07837,-0.30469;
18:23:11.000,0.44336,1.32935,-0.31763;
18:23:11.010,0.47729,1.41577,-0.34351;
18:23:11.020,0.51758,1.47314,-0.38379;
18:23:11.030,0.56250,1.51855,-0.43115;
18:23:11.040,0.59180,1.55884,-0.47583;
18:23:11.050,0.59058,1.57910,-0.51172;
18:23:11.060,0.55981,1.55103,-0.53198;
18:23:11.070,0.52197,1.47974,-0.55176;
18:23:11.080,0.49683,1.39526,-0.56030;
18:23:11.090,0.46777,1.31763,-0.55737;
18:23:11.100,0.42896,1.26270,-0.54858;
18:23:11.110,0.37598,1.21655,-0.53296;
18:23:11.120,0.30347,1.16357,-0.51270;
18:23:11.130,0.26074,1.10669,-0.49683;
18:23:11.140,0.21997,1.06543,-0.48120;
18:23:11.150,0.16577,1.03687,-0.45508;
18:23:11.160,0.11987,1.01978,-0.42969;
18:23:11.170,0.06665,1.01611,-0.39819;
18:23:11.180,0.01807,1.02246,-0.36548;
18:23:11.190,-0.02734,1.03320,-0.33643;
18:23:11.200,-0.06689,1.03955,-0.31177;
18:23:11.210,-0.09790,1.04492,-0.28809;
18:23:11.220,-0.12012,1.04077,-0.26782;
18:23:11.230,-0.14087,1.03882,-0.25537;
18:23:11.240,-0.15308,1.03931,-0.24683;
18:23:11.250,-0.15625,1.03345,-0.24512;
18:23:11.260,-0.15454,1.02612,-0.24292;
18:23:11.270,-0.07471,1.01831,-0.24927;
18:23:11.280,-0.02417,1.09985,-0.23999;
18:23:11.290,0.00610,1.13037,-0.22607;
18:23:11.300,0.03613,1.13770,-0.21362;
18:23:11.310,0.06348,1.11621,-0.19824;
18:23:11.320,0.08594,1.07764,-0.18628;
18:23:11.330,0.10400,1.02856,-0.18799;
18:23:11.340,0.11816,0.98633,-0.19067;
18:23:11.350,0.12305,0.95654,-0.18896;
18:23:11.360,0.13501,0.94287,-0.19873;
18:23:11.370,0.15698,0.96704,-0.21094;
18:23:11.380,0.18433,1.00073,-0.21924;
18:23:11.390,0.22266,1.03149,-0.21729;
18:23:11.400,0.26392,1.07886,-0.21631;
18:23:11.410,0.30078,1.11963,-0.22632;
18:23:11.420,0.34302,1.15332,-0.22803;
18:23:11.430,0.38330,1.18750,-0.22998;
18:23:11.440,0.41211,1.21558,-0.24097;
18:23:11.450,0.44141,1.23096,-0.26855;
18:23:11.460,0.45337,1.22900,-0.31323;
18:23:11.470,0.45215,1.19312,-0.36279;
18:23:11.480,0.44092,1.13477,-0.41309;
18:23:11.490,0.40942,1.06494,-0.45874;
18:23:11.500,0.37622,0.98877,-0.49927;
18:23:11.510,0.34204,0.92676,-0.52954;
18:23:11.520,0.30835,0.87085,-0.55054;
18:23:11.530,0.28223,0.84229,-0.57202;
18:23:11.540,0.26685,0.84546,-0.59131;
18:23:11.550,0.26074,0.85742,-0.61523;
18:23:11.560,0.30322,0.86841,-0.66406;
18:23:11.570,0.39111,0.89648,-0.70361;
18:23:11.580,0.42407,0.89551,-0.71484;
18:23:11.590,0.45142,0.87109,-0.72192;
18:23:11.600,0.47314,0.84009,-0.71094;
18:23:11.610,0.48804,0.79395,-0.69727;
18:23:11.620,0.49780,0.75781,-0.68018;
18:23:11.630,0.50049,0.73462,-0.65723;
18:23:11.640,0.49854,0.70239,-0.64063;
18:23:11.650,0.48828,0.67285,-0.61987;
18:23:11.660,0.46753,0.64990,-0.60596;
18:23:11.670,0.44531,0.63818,-0.61011;
18:23:11.680,0.41357,0.62671,-0.61768;
18:23:11.690,0.38184,0.61938,-0.62573;
18:23:11.700,0.34668,0.63257,-0.62695;
18:23:11.710,0.31030,0.65259,-0.61865;
18:23:11.720,0.28198,0.66406,-0.60571;
18:23:11.730,0.26758,0.67773,-0.58643;
18:23:11.740,0.25928,0.70483,-0.56860;
18:23:11.750,0.24390,0.73853,-0.55640;
18:23:11.760,0.22119,0.75830,-0.54028;
18:23:11.770,0.19531,0.76294,-0.52515;
18:23:11.780,0.17261,0.76221,-0.50854;
18:23:11.790,0.15967,0.76489,-0.49609;
18:23:11.800,0.14844,0.77100,-0.49146;
18:23:11.810,0.12866,0.78076,-0.48779;
18:23:11.820,0.11548,0.78931,-0.49146;
18:23:11.830,0.11328,0.80591,-0.49463;
18:23:11.840,0.12720,0.83374,-0.50171;
18:23:11.850,0.23218,0.93213,-0.49976;
18:23:11.860,0.28516,1.00073,-0.47437;
18:23:11.870,0.29541,0.99023,-0.44800;
18:23:11.880,0.29736,0.95313,-0.41675;
18:23:11.890,0.28882,0.91040,-0.39502;
18:23:11.900,0.27686,0.87012,-0.37769;
18:23:11.910,0.26782,0.83643,-0.36621;
18:23:11.920,0.26123,0.81665,-0.35889;
18:23:11.930,0.25781,0.80908,-0.35059;
18:23:11.940,0.26270,0.81982,-0.33838;
18:23:11.950,0.27246,0.83813,-0.32739;
18:23:11.960,0.28516,0.85938,-0.31641;
18:23:11.970,0.30176,0.87842,-0.30981;
18:23:11.980,0.31836,0.89502,-0.30078;
18:23:11.990,0.32593,0.91138,-0.29663;
18:23:12.000,0.32959,0.91553,-0.29028;
18:23:12.010,0.33203,0.91138,-0.28198;
18:23:12.020,0.33350,0.90283,-0.27881;
18:23:12.030,0.33105,0.89258,-0.27246;
18:23:12.040,0.32739,0.88428,-0.26660;
18:23:12.050,0.31982,0.87769,-0.26001;
18:23:12.060,0.30688,0.86841,-0.25098;
18:23:12.070,0.29102,0.86084,-0.23999;
18:23:12.080,0.27832,0.86475,-0.23706;
18:23:12.090,0.27148,0.87109,-0.22900;
18:23:12.100,0.27637,0.95898,-0.18457;
18:23:12.110,0.28003,0.96631,-0.18237;
18:23:12.120,0.28198,0.95972,-0.18604;
18:23:12.130,0.28516,0.95483,-0.18994;
18:23:12.140,0.28931,0.95459,-0.19531;
18:23:12.150,0.29004,0.95679,-0.19678;
18:23:12.160,0.29028,0.95776,-0.19556;
18:23:12.170,0.29419,0.95630,-0.19678;
18:23:12.180,0.29736,0.95483,-0.19409;
18:23:12.190,0.29639,0.96021,-0.19019;
18:23:12.200,0.29004,0.96826,-0.18042;
18:23:12.210,0.28198,0.98120,-0.17725;
18:23:12.220,0.27881,0.98999,-0.18042;
18:23:12.230,0.27515,0.99658,-0.18335;
18:23:12.240,0.27197,1.00024,-0.18677;
18:23:12.250,0.27124,1.00024,-0.18628;
18:23:12.260,0.26855,1.00391,-0.18872;
18:23:12.270,0.26563,1.00415,-0.19067;
18:23:12.280,0.27051,1.00854,-0.19385;
18:23:12.290,0.27808,1.01221,-0.19800;
18:23:12.300,0.29150,1.01465,-0.19336;
18:23:12.310,0.31567,1.01782,-0.19727;
18:23:12.320,0.33032,1.02344,-0.19604;
18:23:12.330,0.34155,1.02954,-0.19189;
18:23:12.340,0.34766,1.03491,-0.18945;
18:23:12.350,0.34937,1.05005,-0.19409;
18:23:12.360,0.34668,1.06274,-0.21362;
18:23:12.370,0.34619,1.07251,-0.22290;
18:23:12.380,0.34302,1.07813,-0.23022;
18:23:12.390,0.33105,1.07910,-0.23584;
18:23:12.400,0.31763,1.06323,-0.24243;
18:23:12.410,0.30005,1.03540,-0.24780;
18:23:12.420,0.28345,1.00708,-0.25562;
18:23:12.430,0.27319,0.97192,-0.25488;
18:23:12.440,0.26831,0.93921,-0.25781;
18:23:12.450,0.26733,0.90845,-0.26392;
18:23:12.460,0.26685,0.88062,-0.26855;
18:23:12.470,0.26807,0.85132,-0.27173;
18:23:12.480,0.27124,0.82861,-0.27417;
18:23:12.490,0.27295,0.82324,-0.28662;
18:23:12.500,0.27441,0.82617,-0.29077;
18:23:12.510,0.27759,0.83496,-0.29443;
18:23:12.520,0.28638,0.85083,-0.29297;
18:23:12.530,0.30103,0.87036,-0.28857;
18:23:12.540,0.32129,0.88062,-0.29102;
18:23:12.550,0.33936,0.88892,-0.29004;
18:23:12.560,0.35181,0.89307,-0.28882;
18:23:12.570,0.35718,0.89941,-0.28320;
18:23:12.580,0.35791,0.91260,-0.28101;
18:23:12.590,0.35938,0.93384,-0.29077;
18:23:12.600,0.36255,0.95532,-0.29541;
18:23:12.610,0.37183,0.96851,-0.30322;
18:23:12.620,0.37476,0.98828,-0.35669;
18:23:12.630,0.33936,0.95361,-0.37988;
18:23:12.640,0.32178,0.91382,-0.38721;
18:23:12.650,0.32275,0.90454,-0.38794;
18:23:12.660,0.32056,0.87720,-0.38721;
18:23:12.670,0.30957,0.85034,-0.38062;
18:23:12.680,0.28662,0.83643,-0.37573;
18:23:12.690,0.27026,0.83765,-0.37646;
18:23:12.700,0.24707,0.83838,-0.37378;
18:23:12.710,0.21582,0.83179,-0.36670;
18:23:12.720,0.19214,0.83179,-0.36035;
18:23:12.730,0.16528,0.84326,-0.35571;
18:23:12.740,0.14844,0.86426,-0.35571;
18:23:12.750,0.13965,0.88452,-0.35718;
18:23:12.760,0.13477,0.90649,-0.34863;
18:23:12.770,0.14087,0.92651,-0.34863;
18:23:12.780,0.15283,0.95801,-0.35620;
18:23:12.790,0.16479,0.98535,-0.36792;
18:23:12.800,0.17383,0.99365,-0.37671;
18:23:12.810,0.17310,0.98242,-0.39160;
18:23:12.820,0.16528,0.96680,-0.38428;
18:23:12.830,0.16016,0.94995,-0.38354;
18:23:12.840,0.16138,0.93701,-0.39136;
18:23:12.850,0.16528,0.92407,-0.39307;
18:23:12.860,0.16821,0.91772,-0.38916;
18:23:12.870,0.16553,0.91064,-0.39209;
18:23:12.880,0.16406,0.90771,-0.39429;
18:23:12.890,0.16406,0.90869,-0.39355;
18:23:12.900,0.16504,0.87231,-0.38770;
18:23:12.910,0.17407,0.88208,-0.36694;
18:23:12.920,0.17749,0.90112,-0.35425;
18:23:12.930,0.17749,0.92749,-0.34888;
18:23:12.940,0.18750,0.96533,-0.35864;
18:23:12.950,0.18066,1.00073,-0.37305;
18:23:12.960,0.16504,1.01733,-0.38916;
18:23:12.970,0.15820,1.01782,-0.41724;
18:23:12.980,0.15479,1.02588,-0.44238;
18:23:12.990,0.14771,1.03589,-0.45557;
18:23:13.000,0.12329,1.02393,-0.45215;
18:23:13.010,0.09766,0.98657,-0.40918;
18:23:13.020,0.09839,0.96045,-0.36426;
18:23:13.030,0.09521,0.96021,-0.35352;
18:23:13.040,0.07813,0.96436,-0.35767;
18:23:13.050,0.05371,0.98022,-0.38135;
18:23:13.060,0.02515,0.98804,-0.40479;
18:23:13.070,0.00269,0.95044,-0.39966;
18:23:13.080,-0.00781,0.91260,-0.38403;
18:23:13.090,-0.02100,0.91553,-0.38818;
18:23:13.100,-0.03442,0.94092,-0.41333;
18:23:13.110,-0.05200,0.95337,-0.40527;
18:23:13.120,-0.08179,0.92432,-0.35352;
18:23:13.130,-0.07178,0.86621,-0.30151;
18:23:13.140,-0.03271,0.78125,-0.29102;
18:23:13.150,-0.01465,0.70630,-0.30591;
18:23:13.160,-0.02100,0.64063,-0.30933;
18:23:13.170,-0.02588,0.58447,-0.29150;
18:23:13.180,-0.00879,0.60059,-0.26440;
18:23:13.190,0.12158,0.84277,-0.35059;
18:23:13.200,0.24390,0.78467,-0.33472;
18:23:13.210,0.31226,0.75366,-0.15405;
18:23:13.220,0.38354,0.79370,0.15601;
18:23:13.230,0.45142,0.87134,0.48584;
18:23:13.240,0.50781,0.94678,1.16113;
18:23:13.250,0.54980,1.13574,1.40918;
18:23:13.260,0.63159,1.41187,1.49951;
18:23:13.270,0.65845,1.58081,1.51685;
18:23:13.280,0.67676,1.52783,1.45483;
18:23:13.290,0.94165,1.48145,0.74951;
18:23:13.300,1.24390,1.17456,-1.34644;
18:23:13.310,0.33667,-0.38623,-0.74438;
18:23:13.320,0.24927,-0.05176,1.68311;
18:23:13.330,0.51074,0.80054,1.48120;
18:23:13.340,0.32227,0.65942,1.58545;
18:23:13.350,0.55640,0.72583,1.23706;
18:23:13.360,0.52002,0.78638,0.65674;
18:23:13.370,0.38477,0.57495,0.22314;
18:23:13.380,0.18677,0.64600,-0.11401;
18:23:13.390,0.11084,0.94043,-0.24268;
18:23:13.400,-0.00488,0.88281,0.11108;
18:23:13.410,0.00342,1.06079,0.27710;
18:23:13.420,-0.17383,1.06860,0.63623;
18:23:13.430,-0.14600,1.17383,0.65552;
18:23:13.440,-0.10669,1.18091,0.66528;
18:23:13.450,-0.10742,1.26953,0.55981;
18:23:13.460,-0.05713,1.29932,0.47705;
18:23:13.470,-0.04712,1.31030,0.43994;
18:23:13.480,-0.04663,1.30640,0.43066;
18:23:13.490,-0.01538,1.30298,0.46802;
18:23:13.500,-0.00317,1.30981,0.49634;
18:23:13.510,0.02100,1.26587,0.55762;
18:23:13.520,0.05835,1.15820,0.69019;
18:23:13.530,0.12427,1.10889,0.84497;
18:23:13.540,0.17749,0.98096,0.92310;
18:23:13.550,0.15405,0.94385,0.89746;
18:23:13.560,0.14502,1.09961,0.77173;
18:23:13.570,0.41699,1.04395,0.61230;
18:23:13.580,0.63574,0.70459,0.54077;
18:23:13.590,0.53638,0.02686,0.53467;
18:23:13.600,0.35352,-0.06152,0.38428;
18:23:13.610,0.19043,0.13379,0.12866;
18:23:13.620,-0.09546,0.01538,-0.15601;
18:23:13.630,0.03540,0.61523,-0.40869;
18:23:13.640,0.22925,0.94971,-0.34570;
18:23:13.650,0.13184,0.75098,-0.21289;
18:23:13.660,0.15552,0.79395,-0.11719;
18:23:13.670,0.05493,0.92407,-0.00439;
18:23:13.680,0.03027,1.08423,0.05615;
18:23:13.690,0.08545,1.17383,-0.00610;
18:23:13.700,0.07690,1.15259,-0.08179;
18:23:13.710,0.13940,1.03784,-0.14526;
18:23:13.720,0.14893,0.87476,-0.26123;
18:23:13.730,0.18213,1.15234,-0.17944;
18:23:13.740,0.15942,1.20850,-0.14819;
18:23:13.750,0.17285,1.18555,-0.15796;
18:23:13.760,0.16211,1.18335,-0.16870;
18:23:13.770,0.15723,1.17163,-0.16089;
18:23:13.780,0.16431,1.17114,-0.13672;
18:23:13.790,0.14795,1.15552,-0.11694;
18:23:13.800,0.12964,1.10791,-0.08594;
18:23:13.810,0.12134,1.03711,-0.05859;
18:23:13.820,0.10278,0.98682,-0.03149;
18:23:13.830,0.07397,0.94897,-0.00098;
18:23:13.840,0.04810,0.89551,0.03882;
18:23:13.850,0.01904,0.85034,0.09277;
18:23:13.860,-0.00366,0.80591,0.15234;
18:23:13.870,-0.02515,0.77466,0.21069;
18:23:13.880,-0.04053,0.74292,0.26709;
18:23:13.890,-0.05884,0.66895,0.32715;
18:23:13.900,-0.07642,0.59961,0.39014;
18:23:13.910,-0.08081,0.55493,0.43774;
18:23:13.920,-0.06860,0.52222,0.47192;
18:23:13.930,-0.05420,0.50708,0.50024;
18:23:13.940,-0.03149,0.50586,0.52368;
18:23:13.950,0.00146,0.51392,0.57227;
18:23:13.960,0.02637,0.54785,0.64453;
18:23:13.970,0.05469,0.60889,0.75366;
18:23:13.980,0.10986,0.69556,0.88794;
18:23:13.990,0.22241,0.90186,1.00635;
18:23:14.000,0.39136,1.03125,0.89575;
18:23:14.010,0.40259,1.08569,0.76758;
18:23:14.020,0.43604,1.14722,0.70239;
18:23:14.030,0.47168,1.24536,0.65015;
18:23:14.040,0.49756,1.34888,0.63062;
18:23:14.050,0.50610,1.44287,0.62646;
18:23:14.060,0.50439,1.52295,0.63135;
18:23:14.070,0.49170,1.56128,0.62061;
18:23:14.080,0.46729,1.56055,0.59692;
18:23:14.090,0.43481,1.54077,0.57764;
18:23:14.100,0.39844,1.52026,0.57373;
18:23:14.110,0.35400,1.49414,0.59058;
18:23:14.120,0.29736,1.45386,0.61597;
18:23:14.130,0.24072,1.40479,0.64502;
18:23:14.140,0.17798,1.34741,0.68091;
18:23:14.150,0.12329,1.27979,0.71313;
18:23:14.160,0.08472,1.20508,0.74585;
18:23:14.170,0.05688,1.13989,0.79175;
18:23:14.180,0.03198,1.07935,0.85327;
18:23:14.190,0.01147,1.00586,0.92236;
18:23:14.200,-0.01147,0.94092,0.99072;
18:23:14.210,-0.03687,0.88770,1.05396;
18:23:14.220,-0.04663,0.84253,1.09302;
18:23:14.230,-0.04443,0.80396,1.10913;
18:23:14.240,-0.02002,0.79932,1.10864;
18:23:14.250,0.01782,0.80151,1.08447;
18:23:14.260,0.07251,0.81030,1.03052;
18:23:14.270,0.13086,0.82007,0.98364;
18:23:14.280,0.18213,0.83643,0.95166;
18:23:14.290,0.35059,0.88794,0.96240;
18:23:14.300,0.41333,0.89893,0.97241;
18:23:14.310,0.43481,0.89014,0.95557;
18:23:14.320,0.43237,0.88770,0.91455;
18:23:14.330,0.43262,0.89209,0.85010;
18:23:14.340,0.44238,0.90381,0.78271;
18:23:14.350,0.46582,0.95557,0.71729;
18:23:14.360,0.49731,0.98828,0.65869;
18:23:14.370,0.53613,0.99365,0.63062;
18:23:14.380,0.55908,0.97803,0.63501;
18:23:14.390,0.54761,0.93921,0.64111;
18:23:14.400,0.54224,0.90259,0.64697;
18:23:14.410,0.53979,0.89819,0.64502;
18:23:14.420,0.53613,0.92017,0.61792;
18:23:14.430,0.54883,0.93091,0.58008;
18:23:14.440,0.56226,0.94849,0.53833;
18:23:14.450,0.57544,0.97266,0.50391;
18:23:14.460,0.57544,0.99292,0.48315;
18:23:14.470,0.55347,1.00854,0.45972;
18:23:14.480,0.51904,1.00830,0.43701;
18:23:14.490,0.49976,1.01392,0.42871;
18:23:14.500,0.46899,1.03516,0.42700;
18:23:14.510,0.43555,1.03271,0.43237;
18:23:14.520,0.40576,1.01392,0.43970;
18:23:14.530,0.36914,1.00488,0.44702;
18:23:14.540,0.34375,1.00171,0.45947;
18:23:14.550,0.32129,0.98340,0.46973;
18:23:14.560,0.29932,0.96753,0.47144;
18:23:14.570,0.27954,0.98022,0.46851;
18:23:14.580,0.24683,0.96021,0.47144;
18:23:14.590,0.21216,0.94409,0.48486;
18:23:14.600,0.19385,0.92651,0.49219;
18:23:14.610,0.19067,0.92139,0.49805;
18:23:14.620,0.18921,0.90918,0.50488;
18:23:14.630,0.18921,0.89429,0.50610;
18:23:14.640,0.19043,0.88086,0.49976;
18:23:14.650,0.19360,0.87012,0.50122;
18:23:14.660,0.19702,0.88257,0.51147;
18:23:14.670,0.21045,0.88647,0.50391;
18:23:14.680,0.22388,0.88892,0.50562;
18:23:14.690,0.24658,0.89722,0.51538;
18:23:14.700,0.26294,0.90112,0.53101;
18:23:14.710,0.26929,0.89941,0.55884;
18:23:14.720,0.27539,0.90894,0.59790;
18:23:14.730,0.27563,0.92114,0.64624;
18:23:14.740,0.27148,0.92261,0.71582;
18:23:14.750,0.28003,0.92432,0.76245;
18:23:14.760,0.28271,0.94287,0.82764;
18:23:14.770,0.28003,0.95703,0.87427;
18:23:14.780,0.31543,0.96313,0.88623;
18:23:14.790,0.36108,0.96436,0.85791;
18:23:14.800,0.39160,0.95654,0.82349;
18:23:14.810,0.39819,0.96582,0.79395;
18:23:14.820,0.38208,0.99292,0.74854;
18:23:14.830,0.36914,0.98828,0.68945;
18:23:14.840,0.36426,0.96338,0.63062;
18:23:14.850,0.30054,0.94873,0.68335;
18:23:14.860,0.26343,0.95898,0.72485;
18:23:14.870,0.26440,0.95752,0.69434;
18:23:14.880,0.26758,0.96338,0.63403;
18:23:14.890,0.27417,0.96460,0.57324;
18:23:14.900,0.27148,0.96753,0.53882;
18:23:14.910,0.26465,0.99390,0.52515;
18:23:14.920,0.25415,1.01245,0.54712;
18:23:14.930,0.23975,1.03809,0.58545;
18:23:14.940,0.22583,1.05273,0.60864;
18:23:14.950,0.20923,1.05762,0.62354;
18:23:14.960,0.19141,1.07690,0.63184;
18:23:14.970,0.18481,1.08521,0.63354;
18:23:14.980,0.18677,1.08398,0.61401;
18:23:14.990,0.19434,1.08691,0.58301;
18:23:15.000,0.21411,1.08423,0.54565;
18:23:15.010,0.23755,1.08203,0.51660;
18:23:15.020,0.25757,1.09863,0.50024;
18:23:15.030,0.28052,1.11865,0.48804;
18:23:15.040,0.31348,1.13940,0.47876;
18:23:15.050,0.34644,1.16089,0.47314;
18:23:15.060,0.37451,1.17993,0.45117;
18:23:15.070,0.39917,1.19800,0.41211;
18:23:15.080,0.41748,1.16748,0.36719;
18:23:15.090,0.45313,1.14575,0.32129;
18:23:15.100,0.47632,1.15845,0.27197;
18:23:15.110,0.48218,1.13232,0.23193;
18:23:15.120,0.49463,1.08521,0.20435;
18:23:15.130,0.49243,1.06079,0.20117;
18:23:15.140,0.45386,0.96069,0.32153;
18:23:15.150,0.37158,0.85303,0.32666;
18:23:15.160,0.31689,0.83179,0.33618;
18:23:15.170,0.26367,0.81885,0.38892;
18:23:15.180,0.22412,0.82715,0.46362;
18:23:15.190,0.18530,0.84399,0.51392;
18:23:15.200,0.16455,0.85425,0.53247;
18:23:15.210,0.16895,0.84106,0.51953;
18:23:15.220,0.17993,0.82935,0.48120;
18:23:15.230,0.19678,0.83862,0.42773;
18:23:15.240,0.22192,0.85815,0.36792;
18:23:15.250,0.25024,0.87329,0.31763;
18:23:15.260,0.27808,0.89600,0.28564;
18:23:15.270,0.29199,0.94873,0.27075;
18:23:15.280,0.30249,1.00903,0.25220;
18:23:15.290,0.31543,1.05908,0.23535;
18:23:15.300,0.33228,1.11304,0.21240;
18:23:15.310,0.35791,1.15479,0.19629;
18:23:15.320,0.37134,1.16870,0.17627;
18:23:15.330,0.37695,1.16016,0.15308;
18:23:15.340,0.37402,1.14233,0.14771;
18:23:15.350,0.36377,1.11963,0.15527;
18:23:15.360,0.35840,1.10596,0.17334;
18:23:15.370,0.32813,1.06348,0.19434;
18:23:15.380,0.31641,1.03198,0.23804;
18:23:15.390,0.30054,1.01587,0.26367;
18:23:15.400,0.29028,1.00464,0.27612;
18:23:15.410,0.28101,0.98755,0.28979;
18:23:15.420,0.26416,0.94263,0.29297;
18:23:15.430,0.22632,0.86987,0.33252;
18:23:15.440,0.20654,0.82153,0.38599;
18:23:15.450,0.19873,0.80566,0.40259;
18:23:15.460,0.19922,0.78955,0.42041;
18:23:15.470,0.19824,0.78198,0.43213;
18:23:15.480,0.19531,0.78320,0.43896;
18:23:15.490,0.19165,0.78394,0.43555;
18:23:15.500,0.18433,0.78662,0.43018;
18:23:15.510,0.18311,0.79858,0.43555;
18:23:15.520,0.18213,0.81372,0.45483;
18:23:15.530,0.18286,0.83423,0.48071;
18:23:15.540,0.18604,0.84937,0.50415;
18:23:15.550,0.18579,0.85864,0.52905;
18:23:15.560,0.19434,0.85571,0.56250;
18:23:15.570,0.20117,0.84717,0.61670;
18:23:15.580,0.21802,0.88403,0.79126;
18:23:15.590,0.22974,0.91943,0.85693;
18:23:15.600,0.27002,0.95874,0.89819;
18:23:15.610,0.33032,1.00220,0.89307;
18:23:15.620,0.38452,1.01904,0.82910;
18:23:15.630,0.45898,0.99390,0.73926;
18:23:15.640,0.52148,0.97095,0.66357;
18:23:15.650,0.54370,0.99585,0.60986;
18:23:15.660,0.53735,1.09473,0.55835;
18:23:15.670,0.51221,1.16382,0.53442;
18:23:15.680,0.49585,1.20215,0.52661;
18:23:15.690,0.48267,1.22559,0.54517;
18:23:15.700,0.46313,1.23120,0.59448;
18:23:15.710,0.43091,1.18213,0.69922;
18:23:15.720,0.39429,1.07007,0.65625;
18:23:15.730,0.36523,0.99927,0.61914;
18:23:15.740,0.33032,0.97778,0.59570;
18:23:15.750,0.28516,1.00464,0.57788;
18:23:15.760,0.25488,1.02441,0.59424;
18:23:15.770,0.23193,1.05884,0.61646;
18:23:15.780,0.20435,1.08643,0.62598;
18:23:15.790,0.19971,1.07813,0.62915;
18:23:15.800,0.19995,1.05151,0.61963;
18:23:15.810,0.20459,1.02759,0.59839;
18:23:15.820,0.21118,1.01367,0.56714;
18:23:15.830,0.21313,1.00049,0.54785;
18:23:15.840,0.21509,1.00635,0.53906;
18:23:15.850,0.21753,1.02441,0.53052;
18:23:15.860,0.21484,1.03540,0.51343;
18:23:15.870,0.21997,1.05640,0.48706;
18:23:15.880,0.21973,1.07251,0.45801;
18:23:15.890,0.21753,1.07617,0.43408;
18:23:15.900,0.22485,1.07104,0.42871;
18:23:15.910,0.22461,1.06079,0.43677;
18:23:15.920,0.21997,1.04980,0.46460;
18:23:15.930,0.21289,1.03638,0.49365;
18:23:15.940,0.20142,1.01709,0.51392;
18:23:15.950,0.19214,0.99194,0.55835;
18:23:15.960,0.17358,0.96948,0.59253;
18:23:15.970,0.15649,0.93750,0.61768;
18:23:15.980,0.14746,0.90991,0.63794;
18:23:15.990,0.14063,0.89282,0.66260;
18:23:16.000,0.14307,0.84277,0.68188;
18:23:16.010,0.15234,0.83594,0.64990;
18:23:16.020,0.15527,0.84009,0.61743;
18:23:16.030,0.15063,0.84888,0.58276;
18:23:16.040,0.15186,0.88745,0.53662;
18:23:16.050,0.17163,0.93213,0.49951;
18:23:16.060,0.20386,0.97412,0.47754;
18:23:16.070,0.25024,1.02856,0.45947;
18:23:16.080,0.30005,1.08862,0.43750;
18:23:16.090,0.33740,1.13867,0.40820;
18:23:16.100,0.35962,1.14575,0.37720;
18:23:16.110,0.39624,1.03345,0.34033;
18:23:16.120,0.41284,1.00439,0.32593;
18:23:16.130,0.41357,0.98584,0.30933;
18:23:16.140,0.40918,0.94678,0.28564;
18:23:16.150,0.41431,0.93774,0.25269;
18:23:16.160,0.41211,0.93604,0.21851;
18:23:16.170,0.41821,0.91626,0.19531;
18:23:16.180,0.42505,0.91650,0.17090;
18:23:16.190,0.42554,0.89673,0.15039;
18:23:16.200,0.42139,0.89429,0.14697;
18:23:16.210,0.39063,0.88208,0.16406;
18:23:16.220,0.36230,0.86426,0.18066;
18:23:16.230,0.33350,0.83618,0.18994;
18:23:16.240,0.30029,0.80542,0.19434;
18:23:16.250,0.27173,0.77832,0.20581;
18:23:16.260,0.25366,0.75562,0.21777;
18:23:16.270,0.22925,0.73267,0.23486;
18:23:16.280,0.21680,0.72241,0.24854;
18:23:16.290,0.21851,0.71582,0.25562;
18:23:16.300,0.21802,0.70435,0.25610;
18:23:16.310,0.21875,0.69702,0.25244;
18:23:16.320,0.21875,0.68799,0.25098;
18:23:16.330,0.22510,0.68799,0.24731;
18:23:16.340,0.23022,0.70557,0.24194;
18:23:16.350,0.23657,0.72314,0.23853;
18:23:16.360,0.24878,0.73730,0.24390;
18:23:16.370,0.25269,0.76099,0.25366;
18:23:16.380,0.25586,0.77637,0.26392;
18:23:16.390,0.26221,0.78027,0.26782;
18:23:16.400,0.27173,0.79297,0.26953;
18:23:16.410,0.28589,0.81934,0.27197;
18:23:16.420,0.30322,0.83984,0.27661;
18:23:16.430,0.32813,0.86108,0.29297;
18:23:16.440,0.35962,0.86841,0.30542;
18:23:16.450,0.38721,0.85840,0.31885;
18:23:16.460,0.40112,0.84180,0.36279;
18:23:16.470,0.40991,0.86255,0.40259;
18:23:16.480,0.43213,0.87915,0.42017;
18:23:16.490,0.46680,0.84692,0.45728;
18:23:16.500,0.57520,0.99121,0.55835;
18:23:16.510,0.61523,0.94409,0.57788;
18:23:16.520,0.59106,0.90381,0.57861;
18:23:16.530,0.57690,0.84326,0.56372;
18:23:16.540,0.58203,0.81372,0.54370;
18:23:16.550,0.58374,0.77881,0.51685;
18:23:16.560,0.57300,0.75562,0.48584;
18:23:16.570,0.56567,0.70898,0.47241;
18:23:16.580,0.56787,0.65186,0.44873;
18:23:16.590,0.56982,0.62402,0.42236;
18:23:16.600,0.58594,0.59521,0.41309;
18:23:16.610,0.59961,0.56641,0.41187;
18:23:16.620,0.60742,0.52393,0.40039;
18:23:16.630,0.61646,0.48267,0.44385;
18:23:16.640,0.62866,0.49292,0.50317;
18:23:16.650,0.62622,0.55542,0.54077;
18:23:16.660,0.59375,0.61572,0.57275;
18:23:16.670,0.58521,0.64624,0.57422;
18:23:16.680,0.58789,0.70020,0.55005;
18:23:16.690,0.59863,0.72021,0.52051;
18:23:16.700,0.59204,0.64673,0.52271;
18:23:16.710,0.58789,0.54761,0.53101;
18:23:16.720,0.58716,0.55444,0.52710;
18:23:16.730,0.58765,0.61792,0.51611;
18:23:16.740,0.62280,0.70654,0.54639;
18:23:16.750,0.65527,0.79541,0.57227;
18:23:16.760,0.67798,0.85791,0.66040;
18:23:16.770,0.75000,1.08936,0.76685;
18:23:16.780,0.77808,1.34033,0.83813;
18:23:16.790,0.77222,1.46094,0.85278;
18:23:16.800,0.78125,1.51904,0.86133;
18:23:16.810,0.82446,1.61670,0.84863;
18:23:16.820,0.82520,1.67651,0.80273;
18:23:16.830,0.79419,1.68823,0.75195;
18:23:16.840,0.78369,1.71777,0.70923;
18:23:16.850,0.80591,1.65723,0.68237;
18:23:16.860,0.82764,1.48340,0.60986;
18:23:16.870,0.70947,1.36523,0.56274;
18:23:16.880,0.56958,1.57983,0.64429;
18:23:16.890,0.63525,1.84766,0.72266;
18:23:16.900,0.81836,1.76147,0.80811;
18:23:16.910,0.97705,1.59692,0.90552;
18:23:16.920,1.03882,1.63013,0.97803;
18:23:16.930,1.02783,1.83179,0.99194;
18:23:16.940,1.01221,2.03857,0.99097;
18:23:16.950,1.02808,2.15771,1.05078;
18:23:16.960,1.06787,2.08594,1.13086;
18:23:16.970,1.08984,1.82715,1.20923;
18:23:16.980,1.09473,1.56396,1.22583;
18:23:16.990,1.13794,1.36133,1.10352;
18:23:17.000,1.16235,1.19360,1.08569;
18:23:17.010,1.11279,1.03003,1.08984;
18:23:17.020,1.03320,0.97705,1.02002;
18:23:17.030,0.97754,0.85742,1.05444;
18:23:17.040,0.92505,0.61523,1.12134;
18:23:17.050,0.92163,0.38770,1.17993;
18:23:17.060,1.21606,-0.10620,1.24341;
18:23:17.070,1.26025,-0.38428,1.22729;
18:23:17.080,1.23169,-0.38672,1.16235;
18:23:17.090,1.13403,-0.44800,1.09375;
18:23:17.100,1.08765,-0.50122,0.83032;
18:23:17.110,1.14600,-0.35156,-0.10083;
18:23:17.120,0.76709,-0.35083,0.03955;
18:23:17.130,0.63452,-0.71582,0.79419;
18:23:17.140,0.76660,-1.31177,0.94385;
18:23:17.150,0.79199,-1.39233,0.86523;
18:23:17.160,0.68799,-1.10083,0.79614;
18:23:17.170,0.64819,-0.72729,0.76050;
18:23:17.180,0.71704,-0.61646,0.61206;
18:23:17.190,1.12988,-0.35620,-0.04785;
18:23:17.200,1.69189,0.41772,-0.85669;
18:23:17.210,1.65576,1.01367,-1.53223;
18:23:17.220,0.85693,0.99194,-2.33643;
18:23:17.230,0.58984,1.26489,-3.32471;
18:23:17.240,1.16846,1.43408,-4.37524;
18:23:17.250,1.04395,0.57446,-4.30103;
18:23:17.260,0.66406,-0.21704,-3.18066;
18:23:17.270,0.41089,-0.93286,-2.16602;
18:23:17.280,0.41040,-1.53223,-0.98169;
18:23:17.290,0.92261,-1.03345,0.16870;
18:23:17.300,1.21216,-0.31543,0.80615;
18:23:17.310,2.08667,0.88184,0.67847;
18:23:17.320,2.45093,2.63477,0.08594;
18:23:17.330,1.84766,3.45117,-0.71606;
18:23:17.340,1.16016,1.60010,-0.73267;
18:23:17.350,1.14722,1.36426,-0.65137;
18:23:17.360,0.92432,0.86523,-0.64014;
18:23:17.370,0.69946,0.45972,-0.74121;
18:23:17.380,0.63037,0.21362,-0.83594;
18:23:17.390,0.65332,0.05225,-0.89795;
18:23:17.400,0.68457,-0.05518,-0.96558;
18:23:17.410,0.70190,-0.05103,-0.99878;
18:23:17.420,0.72632,0.07080,-0.98169;
18:23:17.430,0.71631,0.27417,-0.90942;
18:23:17.440,0.68457,0.42480,-0.81836;
18:23:17.450,0.69873,0.50659,-0.70972;
18:23:17.460,0.73071,0.58130,-0.59351;
18:23:17.470,0.76343,0.65479,-0.50024;
18:23:17.480,0.79907,0.72583,-0.45044;
18:23:17.490,0.82690,0.79248,-0.41797;
18:23:17.500,0.84766,0.84863,-0.39697;
18:23:17.510,0.86011,0.88208,-0.39307;
18:23:17.520,0.84058,0.89990,-0.39917;
18:23:17.530,0.79712,0.90308,-0.41113;
18:23:17.540,0.75146,0.88208,-0.43579;
18:23:17.550,0.70068,0.83862,-0.44019;
18:23:17.560,0.66040,0.79565,-0.43140;
18:23:17.570,0.64404,0.75317,-0.41821;
18:23:17.580,0.63599,0.70044,-0.39355;
18:23:17.590,0.63745,0.66553,-0.36694;
18:23:17.600,0.63892,0.63770,-0.34424;
18:23:17.610,0.64111,0.61035,-0.32593;
18:23:17.620,0.64404,0.59521,-0.31201;
18:23:17.630,0.63745,0.59473,-0.32959;
18:23:17.640,0.63892,0.63623,-0.35547;
18:23:17.650,0.63794,0.64771,-0.36255;
18:23:17.660,0.63428,0.66675,-0.35889;
18:23:17.670,0.62646,0.68311,-0.33911;
18:23:17.680,0.61475,0.70190,-0.32251;
18:23:17.690,0.59888,0.72461,-0.31226;
18:23:17.700,0.58691,0.74634,-0.31006;
18:23:17.710,0.58130,0.76318,-0.31714;
18:23:17.720,0.57178,0.77466,-0.32471;
18:23:17.730,0.57568,0.79517,-0.34033;
18:23:17.740,0.59277,0.83081,-0.35449;
18:23:17.750,0.64746,0.85742,-0.35962;
18:23:17.760,0.66821,0.85913,-0.35181;
18:23:17.770,0.68921,0.85815,-0.34253;
18:23:17.780,0.69067,0.85889,-0.33203;
18:23:17.790,0.69116,0.85229,-0.32349;
18:23:17.800,0.69458,0.83691,-0.31860;
18:23:17.810,0.69824,0.80933,-0.31738;
18:23:17.820,0.69556,0.77808,-0.31885;
18:23:17.830,0.67896,0.75220,-0.31665;
18:23:17.840,0.66235,0.73120,-0.31958;
18:23:17.850,0.65015,0.73389,-0.31689;
18:23:17.860,0.64331,0.73486,-0.31274;
18:23:17.870,0.63135,0.72119,-0.30884;
18:23:17.880,0.61328,0.71948,-0.30518;
18:23:17.890,0.59717,0.72681,-0.30029;
18:23:17.900,0.57886,0.72510,-0.28491;
18:23:17.910,0.57397,0.71924,-0.27490;
18:23:17.920,0.56812,0.74219,-0.26733;
18:23:17.930,0.60889,0.77246,-0.26123;
18:23:17.940,0.60352,0.78394,-0.26855;
18:23:17.950,0.60181,0.80127,-0.27515;
18:23:17.960,0.61841,0.81421,-0.28711;
18:23:17.970,0.63770,0.82422,-0.29688;
18:23:17.980,0.64697,0.82324,-0.30322;
18:23:17.990,0.65820,0.81055,-0.29980;
18:23:18.000,0.66772,0.78882,-0.28979;
18:23:18.010,0.67114,0.76904,-0.27686;
18:23:18.020,0.66895,0.75220,-0.26709;
18:23:18.030,0.65894,0.73315,-0.25537;
18:23:18.040,0.64990,0.71655,-0.25537;
18:23:18.050,0.66187,0.70923,-0.27197;
18:23:18.060,0.69360,0.68384,-0.28296;
18:23:18.070,0.71802,0.63843,-0.28760;
18:23:18.080,0.71167,0.59595,-0.28149;
18:23:18.090,0.69165,0.56543,-0.26929;
18:23:18.100,0.67725,0.55737,-0.26001;
18:23:18.110,0.65698,0.55444,-0.25879;
18:23:18.120,0.64063,0.54980,-0.26636;
18:23:18.130,0.62671,0.54907,-0.27710;
18:23:18.140,0.60742,0.54272,-0.29272;
18:23:18.150,0.60400,0.53467,-0.29810;
18:23:18.160,0.62183,0.52832,-0.30005;
18:23:18.170,0.64673,0.51904,-0.30786;
18:23:18.180,0.65527,0.50049,-0.30957;
18:23:18.190,0.65234,0.48096,-0.29370;
18:23:18.200,0.65356,0.47754,-0.29785;
18:23:18.210,0.62256,0.49023,-0.32056;
18:23:18.220,0.62744,0.44165,-0.30005;
18:23:18.230,0.65576,0.43335,-0.31177;
18:23:18.240,0.69507,0.45264,-0.35010;
18:23:18.250,0.71021,0.46948,-0.36157;
18:23:18.260,0.73218,0.46606,-0.37549;
18:23:18.270,0.76611,0.45239,-0.40723;
18:23:18.280,0.80469,0.42725,-0.41504;
18:23:18.290,0.84937,0.38232,-0.45508;
18:23:18.300,0.89941,0.35547,-0.49048;
18:23:18.310,1.03833,0.39478,-0.51514;
18:23:18.320,1.07471,0.42578,-0.52710;
18:23:18.330,1.11206,0.41748,-0.50903;
18:23:18.340,1.17456,0.44482,-0.48291;
18:23:18.350,1.24341,0.50562,-0.48193;
18:23:18.360,1.27173,0.56201,-0.49146;
18:23:18.370,1.26953,0.57129,-0.49902;
18:23:18.380,1.30347,0.54175,-0.49927;
18:23:18.390,1.36572,0.56519,-0.49561;
18:23:18.400,1.37866,0.62866,-0.43237;
18:23:18.410,1.31543,0.70313,-0.28687;
18:23:18.420,1.25146,0.81152,-0.14014;
18:23:18.430,1.20117,0.92407,-0.06421;
18:23:18.440,1.16382,1.00024,-0.00098;
18:23:18.450,1.16382,1.01514,0.03540;
18:23:18.460,1.22681,1.01367,0.04492;
18:23:18.470,1.31958,0.97803,0.09229;
18:23:18.480,1.38086,0.87305,0.14380;
18:23:18.490,1.10596,0.23413,-0.18042;
18:23:18.500,0.82202,0.09253,-0.15405;
18:23:18.510,0.66968,0.18555,0.11475;
18:23:18.520,0.52490,0.60815,0.44482;
18:23:18.530,0.39429,1.03979,0.75488;
18:23:18.540,0.04028,1.30591,0.91846;
18:23:18.550,-0.12964,1.44727,0.97485;
18:23:18.560,-0.17700,1.57544,1.02441;
18:23:18.570,-0.13013,1.70947,1.07397;
18:23:18.580,-0.00171,1.84570,1.04980;
18:23:18.590,0.18628,1.81128,1.00049;
18:23:18.600,0.29785,1.71924,1.03198;
18:23:18.610,0.38501,2.06934,0.94141;
18:23:18.620,0.48682,1.94287,0.66357;
18:23:18.630,0.56348,1.28076,0.56396;
18:23:18.640,0.67163,0.49805,0.40039;
18:23:18.650,0.75244,0.41870,0.53809;
18:23:18.660,0.80762,1.21753,0.62305;
18:23:18.670,0.80737,1.21948,0.71948;
18:23:18.680,0.79199,0.96655,0.78955;
18:23:18.690,0.76709,0.93848,0.89526;
18:23:18.700,0.75708,1.01831,0.91260;
18:23:18.710,0.73828,0.96436,0.93750;
18:23:18.720,0.70313,0.82666,0.95605;
18:23:18.730,0.68335,0.62012,0.98877;
18:23:18.740,0.69824,0.44482,1.11255;
18:23:18.750,0.69458,0.29883,1.21582;
18:23:18.760,0.78174,-0.13086,1.49634;
18:23:18.770,0.75708,-1.01172,1.41040;
18:23:18.780,0.68018,-1.42310,1.16235;
18:23:18.790,0.56104,-1.77246,0.80176;
18:23:18.800,0.35791,-2.19043,0.50269;
18:23:18.810,0.48975,-2.21143,0.18335;
18:23:18.820,0.58472,-1.11792,-0.25708;
18:23:18.830,0.33374,-0.21484,-0.45776;
18:23:18.840,0.28345,-0.00830,-0.33032;
18:23:18.850,0.51538,0.50146,-0.49121;
18:23:18.860,0.83032,1.19263,-1.29224;
18:23:18.870,0.82983,1.19946,-2.15137;
18:23:18.880,1.20752,1.14063,-2.67773;
18:23:18.890,1.38599,0.95410,-2.93774;
18:23:18.900,0.99658,0.70117,-2.51709;
18:23:18.910,0.88965,0.32397,-2.02979;
18:23:18.920,0.94995,-0.12109,-1.42920;
18:23:18.930,1.01855,-0.06055,-0.45825;
18:23:18.940,1.10596,0.03662,0.33008;
18:23:18.950,1.54590,0.42651,0.59619;
18:23:18.960,2.12158,1.43066,0.35425;
18:23:18.970,2.02979,1.86060,0.03687;
18:23:18.980,1.46729,1.66748,-0.26514;
18:23:18.990,1.27905,1.44214,-0.39038;
18:23:19.000,1.40161,1.20190,-0.39990;
18:23:19.010,1.32959,0.83838,-0.45288;
18:23:19.020,1.23291,0.58398,-0.54541;
18:23:19.030,1.11841,0.31421,-0.62402;
18:23:19.040,1.00146,-0.09595,-0.83569;
18:23:19.050,0.95044,0.23804,-0.77832;
18:23:19.060,0.87915,0.30835,-0.70142;
18:23:19.070,0.88672,0.38794,-0.61133;
18:23:19.080,0.91895,0.47974,-0.49731;
18:23:19.090,0.93359,0.57153,-0.38281;
18:23:19.100,0.90454,0.64453,-0.30273;
18:23:19.110,0.87207,0.68970,-0.25610;
18:23:19.120,0.86792,0.72900,-0.22754;
18:23:19.130,0.86401,0.72559,-0.20874;
18:23:19.140,0.84497,0.68677,-0.20923;
18:23:19.150,0.84180,0.65137,-0.21777;
18:23:19.160,0.85474,0.62109,-0.22437;
18:23:19.170,0.84058,0.58325,-0.23804;
18:23:19.180,0.81128,0.54199,-0.24683;
18:23:19.190,0.78955,0.52002,-0.24927;
18:23:19.200,0.79272,0.50684,-0.24194;
18:23:19.210,0.81299,0.49878,-0.22876;
18:23:19.220,0.83008,0.50488,-0.23096;
18:23:19.230,0.84375,0.53320,-0.22656;
18:23:19.240,0.85156,0.55859,-0.22681;
18:23:19.250,0.85718,0.56738,-0.23291;
18:23:19.260,0.86475,0.57471,-0.23633;
18:23:19.270,0.87769,0.59009,-0.24219;
18:23:19.280,0.87134,0.60449,-0.25122;
18:23:19.290,0.82642,0.59937,-0.25415;
18:23:19.300,0.82495,0.59473,-0.23242;
18:23:19.310,0.82544,0.58911,-0.15771;
18:23:19.320,0.83179,0.59180,-0.15381;
18:23:19.330,0.80981,0.59131,-0.20459;
18:23:19.340,0.80249,0.59521,-0.22510;
18:23:19.350,0.80444,0.60718,-0.23120;
18:23:19.360,0.80225,0.60229,-0.21558;
18:23:19.370,0.78735,0.58691,-0.18848;
18:23:19.380,0.77637,0.58398,-0.14819;
18:23:19.390,0.78662,0.59473,-0.11133;
18:23:19.400,0.81519,0.61133,-0.11182;
18:23:19.410,0.83105,0.62354,-0.13086;
18:23:19.420,0.83862,0.62769,-0.15186;
18:23:19.430,0.84180,0.61133,-0.16919;
18:23:19.440,0.84253,0.58643,-0.17017;
18:23:19.450,0.84375,0.56885,-0.16357;
18:23:19.460,0.83350,0.55273,-0.15503;
18:23:19.470,0.82690,0.54590,-0.14429;
18:23:19.480,0.82788,0.53955,-0.13428;
18:23:19.490,0.83203,0.53052,-0.12598;
18:23:19.500,0.83887,0.53052,-0.11401;
18:23:19.510,0.84888,0.53125,-0.11108;
18:23:19.520,0.85498,0.52808,-0.11914;
18:23:19.530,0.85767,0.53076,-0.12866;
18:23:19.540,0.84961,0.53711,-0.13452;
18:23:19.550,0.83130,0.52734,-0.14990;
18:23:19.560,0.81396,0.52441,-0.15649;
18:23:19.570,0.81812,0.55420,-0.15991;
18:23:19.580,0.84839,0.60498,-0.17310;
18:23:19.590,0.87939,0.63696,-0.19531;
18:23:19.600,0.89624,0.64844,-0.21167;
18:23:19.610,0.92432,0.64453,-0.19897;
18:23:19.620,0.94409,0.62549,-0.19214;
18:23:19.630,0.95605,0.58911,-0.18164;
18:23:19.640,0.95483,0.56128,-0.18359;
18:23:19.650,0.94434,0.54614,-0.18799;
18:23:19.660,0.91357,0.54077,-0.19507;
18:23:19.670,0.88477,0.53589,-0.20581;
18:23:19.680,0.85913,0.52148,-0.20483;
18:23:19.690,0.83545,0.51367,-0.19043;
18:23:19.700,0.81738,0.51636,-0.18286;
18:23:19.710,0.78003,0.51733,-0.19019;
18:23:19.720,0.73608,0.50415,-0.19531;
18:23:19.730,0.68628,0.47925,-0.18945;
18:23:19.740,0.63672,0.45435,-0.17822;
18:23:19.750,0.59058,0.44604,-0.17529;
18:23:19.760,0.54077,0.44434,-0.18359;
18:23:19.770,0.49878,0.43726,-0.19385;
18:23:19.780,0.45776,0.43530,-0.20483;
18:23:19.790,0.42920,0.43335,-0.21313;
18:23:19.800,0.41943,0.44653,-0.22583;
18:23:19.810,0.42261,0.48096,-0.23901;
18:23:19.820,0.43970,0.51221,-0.24976;
18:23:19.830,0.44995,0.54224,-0.25610;
18:23:19.840,0.45972,0.57397,-0.26489;
18:23:19.850,0.47583,0.57959,-0.27466;
18:23:19.860,0.48950,0.56641,-0.27563;
18:23:19.870,0.50928,0.57153,-0.27393;
18:23:19.880,0.53784,0.58545,-0.27344;
18:23:19.890,0.57349,0.59521,-0.29785;
18:23:19.900,0.70215,0.61719,-0.30981;
18:23:19.910,0.71826,0.56079,-0.28564;
18:23:19.920,0.71411,0.54492,-0.25977;
18:23:19.930,0.72437,0.53735,-0.23584;
18:23:19.940,0.75293,0.52075,-0.23193;
18:23:19.950,0.78760,0.50098,-0.28271;
18:23:19.960,0.83838,0.48096,-0.35083;
18:23:19.970,0.90161,0.45215,-0.39746;
18:23:19.980,0.97534,0.36963,-0.37451;
18:23:19.990,0.96143,0.32031,-0.36621;
18:23:20.000,0.94482,0.28320,-0.35059;
18:23:20.010,0.96387,0.29639,-0.37549;
18:23:20.020,1.00000,0.32446,-0.44141;
18:23:20.030,1.03394,0.31421,-0.47510;
18:23:20.040,1.05176,0.27417,-0.48438;
18:23:20.050,1.03271,0.21558,-0.47534;
18:23:20.060,1.04688,0.17163,-0.48755;
18:23:20.070,1.12280,0.22070,-0.52100;
18:23:20.080,1.18604,0.27319,-0.53931;
18:23:20.090,1.25977,0.34229,-0.50366;
18:23:20.100,1.32837,0.42065,-0.48511;
18:23:20.110,1.33154,0.42944,-0.44312;
18:23:20.120,1.43970,0.85791,-0.16113;
18:23:20.130,1.46875,0.97632,-0.12012;
18:23:20.140,0.87622,0.70630,-0.72729;
18:23:20.150,0.78516,1.22192,-0.45117;
18:23:20.160,0.72266,1.40576,0.29590;
18:23:20.170,0.88916,1.21704,0.70435;
18:23:20.180,0.90356,1.18286,0.77417;
18:23:20.190,0.88110,1.01978,0.90698;
18:23:20.200,0.87695,0.98999,1.00293;
18:23:20.210,0.86377,1.18433,0.94629;
18:23:20.220,0.80298,1.32422,0.86060;
18:23:20.230,0.75952,1.26709,0.88843;
18:23:20.240,0.77417,1.15063,0.96631;
18:23:20.250,0.80493,1.21045,0.98804;
18:23:20.260,0.82739,1.35034,0.99097;
18:23:20.270,0.86963,1.38818,0.93237;
18:23:20.280,0.90698,1.13306,0.85620;
18:23:20.290,0.93896,0.78125,0.88745;
18:23:20.300,0.94556,0.81372,0.87402;
18:23:20.310,0.87231,1.09399,0.89453;
18:23:20.320,0.86768,1.18018,0.98096;
18:23:20.330,0.91919,1.05737,1.01245;
18:23:20.340,0.91528,0.85693,1.04980;
18:23:20.350,0.87134,0.81201,1.09180;
18:23:20.360,0.78784,0.92163,1.08643;
18:23:20.370,0.36450,0.62598,1.12061;
18:23:20.380,0.35303,0.29199,0.97559;
18:23:20.390,0.41992,0.27954,0.89600;
18:23:20.400,0.51587,0.28247,0.77368;
18:23:20.410,0.61304,0.19141,0.62500;
18:23:20.420,0.65186,0.02368,0.55127;
18:23:20.430,0.68408,0.06201,0.56689;
18:23:20.440,0.75269,0.33350,0.59692;
18:23:20.450,0.70361,0.34082,0.59717;
18:23:20.460,0.54370,0.03760,0.61938;
18:23:20.470,0.55078,-0.23364,0.65210;
18:23:20.480,0.70825,-0.37085,0.54712;
18:23:20.490,0.76563,-0.56421,0.47412;
18:23:20.500,0.75244,-0.91528,0.50342;
18:23:20.510,0.66699,-1.49194,0.32910;
18:23:20.520,0.58105,-1.68311,0.16650;
18:23:20.530,0.59106,-1.78394,0.17798;
18:23:20.540,0.70703,-1.85425,0.15210;
18:23:20.550,0.68262,-1.76294,-0.05737;
18:23:20.560,0.75903,-1.28735,-0.52124;
18:23:20.570,0.83887,-0.63794,-1.17871;
18:23:20.580,0.99072,-0.22241,-1.69775;
18:23:20.590,1.31934,0.04272,-2.37427;
18:23:20.600,1.62939,0.53467,-3.18970;
18:23:20.610,1.55103,0.64868,-3.75098;
18:23:20.620,1.26245,0.17334,-3.42090;
18:23:20.630,1.06812,-0.57935,-3.00708;
18:23:20.640,0.92871,-1.61719,-2.30273;
18:23:20.650,3.72314,0.49780,1.04761;
18:23:20.660,2.88818,2.64478,-1.09668;
18:23:20.670,1.74414,1.55273,-0.93042;
18:23:20.680,1.73267,1.99341,-1.14478;
18:23:20.690,1.57935,1.69873,-1.03418;
18:23:20.700,1.59546,1.03247,-0.62402;
18:23:20.710,1.79346,0.57788,-0.33667;
18:23:20.720,2.09766,0.20605,-0.29468;
18:23:20.730,2.23999,0.31421,-0.16870;
18:23:20.740,2.12524,0.87476,0.05176;
18:23:20.750,1.87036,1.51880,0.31323;
18:23:20.760,1.70728,1.80420,0.39624;
18:23:20.770,1.61011,1.60474,0.31592;
18:23:20.780,1.47095,1.12671,0.28931;
18:23:20.790,1.28882,0.85303,0.47705;
18:23:20.800,1.13330,0.80566,0.60303;
18:23:20.810,1.04297,0.76587,0.63794;
18:23:20.820,1.10156,0.79565,0.68506;
18:23:20.830,1.05835,1.04126,0.33740;
18:23:20.840,1.04004,0.93896,-0.07446;
18:23:20.850,1.33643,1.06641,-0.49219;
18:23:20.860,1.06152,0.86670,-0.73511;
18:23:20.870,0.55200,0.23779,-0.06372;
18:23:20.880,0.39087,0.36694,0.14746;
18:23:20.890,0.32251,0.51709,0.36841;
18:23:20.900,0.03760,-0.01172,0.85596;
18:23:20.910,-0.38306,-0.55762,0.81250;
18:23:20.920,-0.46729,-0.39063,0.53711;
18:23:20.930,-0.36499,-0.13623,0.26074;
18:23:20.940,-0.20117,-0.03491,0.44995;
18:23:20.950,0.06445,0.24609,0.65259;
18:23:20.960,0.14429,0.16870,0.73804;
18:23:20.970,0.21216,0.31177,0.65112;
18:23:20.980,0.37061,0.53638,0.42041;
18:23:20.990,0.48291,0.68555,0.28857;
18:23:21.000,0.54248,0.51636,0.30688;
18:23:21.010,0.58203,0.19189,0.43555;
18:23:21.020,0.57983,0.08252,0.55518;
18:23:21.030,0.58179,0.23950,0.63550;
18:23:21.040,0.57593,0.54419,0.62646;
18:23:21.050,0.55762,0.79541,0.57178;
18:23:21.060,0.49194,1.27954,0.77856;
18:23:21.070,0.55200,1.22339,0.98047;
18:23:21.080,0.56201,1.01294,0.99219;
18:23:21.090,0.37524,1.04468,0.89575;
18:23:21.100,0.13525,1.06909,1.00146;
18:23:21.110,-0.03247,1.00830,1.24585;
18:23:21.120,-0.14380,0.99878,1.33423;
18:23:21.130,-0.23267,1.16895,1.28589;
18:23:21.140,-0.29932,1.37964,1.19849;
18:23:21.150,-0.34302,1.38647,1.16504;
18:23:21.160,-0.32373,1.29150,1.21094;
18:23:21.170,-0.24609,1.21167,1.21387;
18:23:21.180,-0.17188,1.15112,1.17407;
18:23:21.190,-0.11621,1.02368,1.10376;
18:23:21.200,-0.02905,0.83032,1.03394;
18:23:21.210,0.15625,0.41504,0.73047;
18:23:21.220,0.19019,-0.33008,0.69507;
18:23:21.230,0.20654,0.68506,1.43311;
18:23:21.240,0.38623,0.37744,1.78955;
18:23:21.250,0.56616,0.15918,1.80493;
18:23:21.260,0.68530,0.45801,1.82983;
18:23:21.270,0.79199,0.66919,1.86011;
18:23:21.280,0.82764,0.84229,2.09912;
18:23:21.290,0.83765,1.17285,2.29150;
18:23:21.300,0.90430,1.28931,2.30029;
18:23:21.310,0.94507,1.38672,2.30176;
18:23:21.320,0.94434,1.57715,2.33887;
18:23:21.330,1.06030,1.59619,2.25513;
18:23:21.340,1.22363,1.38477,2.16235;
18:23:21.350,1.30493,1.16284,2.15063;
18:23:21.360,1.31812,1.02710,2.05957;
18:23:21.370,1.26196,0.77197,1.97412;
18:23:21.380,1.12207,0.70361,1.85254;
18:23:21.390,1.01001,0.76343,1.67310;
18:23:21.400,0.97266,0.53320,1.58081;
18:23:21.410,0.94678,0.23096,1.46802;
18:23:21.420,0.95459,0.07593,1.22095;
18:23:21.430,0.90918,-0.01929,0.92920;
18:23:21.440,0.84937,-0.17651,0.69849;
18:23:21.450,0.80322,-0.34985,0.38770;
18:23:21.460,0.71582,-0.37964,0.07324;
18:23:21.470,0.64551,-0.41699,-0.10034;
18:23:21.480,0.56494,-0.71753,-0.16333;
18:23:21.490,0.41064,-0.96680,-0.21484;
18:23:21.500,0.37598,-0.79517,-0.75146;
18:23:21.510,0.33252,-0.50024,-0.72070;
18:23:21.520,0.34985,0.09033,-0.25464;
18:23:21.530,0.37085,0.48340,0.02954;
18:23:21.540,0.42065,0.85400,0.24707;
18:23:21.550,0.48560,1.09204,0.38208;
18:23:21.560,0.53271,1.98950,0.80127;
18:23:21.570,0.42383,2.15601,0.93628;
18:23:21.580,0.25488,2.28540,1.15112;
18:23:21.590,0.08179,2.43750,1.37769;
18:23:21.600,0.10596,2.55957,1.48413;
18:23:21.610,0.31787,2.58594,1.67236;
18:23:21.620,0.49292,2.60425,2.13477;
18:23:21.630,0.58887,2.58057,2.46509;
18:23:21.640,0.52441,2.54077,2.53662;
18:23:21.650,0.28369,2.54150,2.62720;
18:23:21.660,-0.01514,2.46338,2.69482;
18:23:21.670,-0.22144,2.40991,2.76147;
18:23:21.680,-0.27954,2.17456,2.83179;
18:23:21.690,-0.17383,1.90112,2.82007;
18:23:21.700,-0.04541,1.71411,2.74634;
18:23:21.710,0.00586,1.57324,2.66016;
18:23:21.720,0.17163,1.51611,2.57813;
18:23:21.730,0.30054,1.40405,2.51001;
18:23:21.740,0.33838,1.30542,2.42236;
18:23:21.750,0.28418,1.20020,2.41382;
18:23:21.760,0.17383,0.93750,2.48291;
18:23:21.770,0.03760,0.80298,2.48877;
18:23:21.780,-0.06616,0.74951,2.44043;
18:23:21.790,-0.29736,0.62061,1.78027;
18:23:21.800,-0.35962,0.56885,1.94019;
18:23:21.810,-0.28394,0.64844,2.12012;
18:23:21.820,0.06519,0.64233,2.29468;
18:23:21.830,0.43188,0.60962,2.26636;
18:23:21.840,0.71826,0.57129,2.08203;
18:23:21.850,0.88770,0.59155,1.85181;
18:23:21.860,0.95093,0.87769,1.65308;
18:23:21.870,0.97632,0.98169,1.45239;
18:23:21.880,1.04199,1.25684,1.27759;
18:23:21.890,1.25659,1.42700,1.32153;
18:23:21.900,1.64648,0.96240,1.21558;
18:23:21.910,1.94897,0.19019,0.96436;
18:23:21.920,1.99658,0.17188,0.79077;
18:23:21.930,2.18604,0.30591,0.02173;
18:23:21.940,2.52637,-0.35547,-0.94458;
18:23:21.950,2.48730,-0.07739,-0.95483;
18:23:21.960,2.21118,0.47729,-0.24609;
18:23:21.970,2.15918,0.10815,-0.02173;
18:23:21.980,2.40625,-1.13477,-0.45801;
18:23:21.990,2.59766,-2.01587,-0.93994;
18:23:22.000,2.33740,-1.77563,-1.08154;
18:23:22.010,1.99878,-1.64917,-1.06372;
18:23:22.020,1.72559,-1.72021,-0.98145;
18:23:22.030,1.50977,-1.57422,-0.88525;
18:23:22.040,1.41016,-1.40479,-0.98389;
18:23:22.050,1.28442,-1.37256,-1.08936;
18:23:22.060,1.13647,-1.20239,-1.00366;
18:23:22.070,1.01929,-0.97168,-0.85693;
18:23:22.080,0.84839,-0.64233,-0.62427;
18:23:22.090,0.83032,-0.45264,-0.42334;
18:23:22.100,0.85205,-0.41919,-0.30957;
18:23:22.110,0.87549,-0.45459,-0.21362;
18:23:22.120,0.85718,-0.42163,-0.16211;
18:23:22.130,0.82935,-0.29810,-0.13599;
18:23:22.140,0.78613,-0.19287,-0.12451;
18:23:22.150,0.72949,-0.12646,-0.13208;
18:23:22.160,0.67920,-0.09253,-0.13745;
18:23:22.170,0.64551,-0.08716,-0.11060;
18:23:22.180,0.55786,-0.16138,-0.00781;
18:23:22.190,0.43481,-0.25342,0.06494;
18:23:22.200,0.35181,-0.24609,0.07690;
18:23:22.210,0.25220,-0.10742,0.01709;
18:23:22.220,0.03003,0.05200,-0.09424;
18:23:22.230,-0.33691,0.14502,-0.17822;
18:23:22.240,-0.78394,0.23950,-0.25928;
18:23:22.250,-1.23608,0.21338,-0.41504;
18:23:22.260,-1.99536,-0.10498,-0.71924;
18:23:22.270,-2.02661,0.00977,-0.89185;
18:23:22.280,-1.86694,0.19043,-1.12720;
18:23:22.290,-1.75293,0.38599,-1.15747;
18:23:22.300,-1.94482,0.61523,-1.06689;
18:23:22.310,-2.18750,0.92896,-1.09326;
18:23:22.320,-2.16772,1.06763,-1.23779;
18:23:22.330,-1.79980,1.15747,-1.25366;
18:23:22.340,-1.47607,1.31128,-1.29175;
18:23:22.350,-1.11157,1.63257,-1.37085;
18:23:22.360,0.16406,2.31323,-0.85571;
18:23:22.370,0.27515,2.09985,-0.17041;
18:23:22.380,0.14917,2.23022,-0.18213;
18:23:22.390,-0.05957,2.30762,-0.35010;
18:23:22.400,-0.20508,2.28003,-0.57129;
18:23:22.410,-0.20508,2.11401,-0.74536;
18:23:22.420,-0.10278,1.75244,-0.81763;
18:23:22.430,-0.00854,1.42310,-0.74658;
18:23:22.440,0.02051,1.30664,-0.57642;
18:23:22.450,-0.05664,1.22339,-0.40674;
18:23:22.460,-0.18628,1.04956,-0.20288;
18:23:22.470,-0.30981,0.93628,-0.07007;
18:23:22.480,-0.39624,0.97852,-0.16870;
18:23:22.490,-0.40430,1.03296,-0.29395;
18:23:22.500,-0.34131,0.99341,-0.36792;
18:23:22.510,-0.26782,0.87329,-0.38818;
18:23:22.520,-0.24048,0.77393,-0.39160;
18:23:22.530,-0.23804,0.68628,-0.37817;
18:23:22.540,-0.23828,0.67358,-0.31030;
18:23:22.550,-0.22974,0.74487,-0.25146;
18:23:22.560,-0.19995,0.79736,-0.20972;
18:23:22.570,-0.15137,0.85645,-0.18872;
18:23:22.580,-0.11206,0.94678,-0.19922;
18:23:22.590,-0.05591,1.09155,-0.20679;
18:23:22.600,0.15381,1.52197,-0.10815;
18:23:22.610,0.29810,1.72607,-0.01416;
18:23:22.620,0.47632,1.95947,0.04004;
18:23:22.630,0.75195,2.20996,0.08716;
18:23:22.640,1.12256,2.14893,0.23071;
18:23:22.650,1.12842,2.32349,0.26733;
18:23:22.660,0.90796,2.35474,0.20532;
18:23:22.670,0.60767,2.29810,0.14160;
18:23:22.680,0.37158,2.22363,0.11523;
18:23:22.690,0.24927,2.17871,0.08398;
18:23:22.700,0.15845,2.12842,0.02588;
18:23:22.710,0.10059,1.97070,-0.03394;
18:23:22.720,-0.00439,1.67798,-0.11401;
18:23:22.730,-0.11621,1.50488,-0.16479;
18:23:22.740,-0.22925,1.44897,-0.20117;
18:23:22.750,-0.36597,1.44165,-0.25757;
18:23:22.760,-0.50317,1.39380,-0.30591;
18:23:22.770,-0.59619,1.27588,-0.31860;
18:23:22.780,-0.62598,1.10840,-0.31152;
18:23:22.790,-0.60498,0.98486,-0.28784;
18:23:22.800,-0.56250,0.91870,-0.26685;
18:23:22.810,-0.52051,0.89355,-0.25757;
18:23:22.820,-0.47021,0.93433,-0.25903;
18:23:22.830,-0.37256,1.02173,-0.28735;
18:23:22.840,-0.25049,1.11938,-0.34766;
18:23:22.850,-0.15161,1.17212,-0.37817;
18:23:22.860,-0.08374,1.23242,-0.36890;
18:23:22.870,-0.02515,1.35132,-0.36694;
18:23:22.880,0.03418,1.50562,-0.42139;
18:23:22.890,0.10596,1.69360,-0.48047;
18:23:22.900,0.16260,1.85083,-0.52393;
18:23:22.910,0.19775,1.98267,-0.56445;
18:23:22.920,0.28345,2.12964,-0.78003;
18:23:22.930,0.53540,2.90625,-1.07739;
18:23:22.940,0.42871,2.95435,-1.25293;
18:23:22.950,0.29858,2.86279,-1.33154;
18:23:22.960,0.14453,2.74365,-1.38940;
18:23:22.970,0.02539,2.64331,-1.34473;
18:23:22.980,-0.05640,2.49341,-1.25586;
18:23:22.990,-0.15601,2.37646,-1.22656;
18:23:23.000,-0.22168,2.33862,-1.22705;
18:23:23.010,-0.23120,2.30542,-1.19531;
18:23:23.020,-0.19019,2.26440,-1.09790;
18:23:23.030,-0.14722,2.20435,-0.87891;
18:23:23.040,-0.16431,2.09985,-0.67090;
18:23:23.050,-0.22729,1.92505,-0.59448;
18:23:23.060,-0.27637,1.76025,-0.60571;
18:23:23.070,-0.24585,1.61572,-0.60010;
18:23:23.080,-0.14111,1.45923,-0.51440;
18:23:23.090,0.00195,1.26758,-0.36841;
18:23:23.100,0.13794,1.04175,-0.20776;
18:23:23.110,0.23218,0.79565,-0.09814;
18:23:23.120,0.27490,0.52856,-0.01099;
18:23:23.130,0.29736,0.31909,0.07495;
18:23:23.140,0.33984,0.25488,0.11792;
18:23:23.150,0.38525,0.27710,0.11816;
18:23:23.160,0.41724,0.27319,0.11768;
18:23:23.170,0.45752,0.21655,0.11377;
18:23:23.180,0.49951,0.10620,0.12646;
18:23:23.190,0.51147,-0.03931,0.17114;
18:23:23.200,0.51904,-0.24097,0.28540;
18:23:23.210,0.57861,-0.42407,0.46875;
18:23:23.220,0.79712,-0.41431,0.57910;
18:23:23.230,0.90088,-0.14429,0.57788;
18:23:23.240,0.93408,-0.08398,0.58130;
18:23:23.250,0.96533,-0.06641,0.66772;
18:23:23.260,0.99048,-0.05762,0.81445;
18:23:23.270,1.06543,-0.08130,1.03052;
18:23:23.280,1.12012,-0.06226,1.16895;
