time,acc_x,acc_y,acc_z
19:16:25.794,-0.48022,0.49927,-0.72241;
19:16:25.804,-0.47925,0.49707,-0.72510;
19:16:25.814,-0.47900,0.49536,-0.72632;
19:16:25.824,-0.47485,0.49512,-0.72998;
19:16:25.834,-0.46973,0.50439,-0.72461;
19:16:25.844,-0.46753,0.50879,-0.72046;
19:16:25.854,-0.47119,0.50146,-0.72632;
19:16:25.864,-0.47363,0.49463,-0.72510;
19:16:25.874,-0.47876,0.49707,-0.73389;
19:16:25.884,-0.47827,0.49780,-0.72925;
19:16:25.894,-0.47485,0.49951,-0.73193;
19:16:25.904,-0.47217,0.49561,-0.74097;
19:16:25.914,-0.47314,0.49341,-0.73560;
19:16:25.924,-0.47827,0.49341,-0.73242;
19:16:25.934,-0.47925,0.48682,-0.73999;
19:16:25.944,-0.47705,0.49023,-0.73853;
19:16:25.954,-0.47437,0.49780,-0.73267;
19:16:25.964,-0.47119,0.49707,-0.73145;
19:16:25.974,-0.47046,0.49292,-0.73267;
19:16:25.984,-0.47314,0.49194,-0.73511;
19:16:25.994,-0.47681,0.49072,-0.73828;
19:16:26.004,-0.47607,0.49438,-0.73169;
19:16:26.014,-0.47827,0.50293,-0.72046;
19:16:26.024,-0.47827,0.50024,-0.72412;
19:16:26.034,-0.47632,0.49829,-0.72876;
19:16:26.044,-0.47388,0.50098,-0.72241;
19:16:26.054,-0.47461,0.49683,-0.72803;
19:16:26.064,-0.47607,0.49487,-0.73438;
19:16:26.074,-0.47168,0.49658,-0.73389;
19:16:26.084,-0.47070,0.49756,-0.73486;
19:16:26.094,-0.47119,0.49170,-0.74146;
19:16:26.104,-0.47046,0.49121,-0.74316;
19:16:26.114,-0.47144,0.49756,-0.73096;
19:16:26.124,-0.47314,0.49365,-0.73364;
19:16:26.134,-0.47656,0.49414,-0.73120;
19:16:26.144,-0.47729,0.49756,-0.73022;
19:16:26.154,-0.47534,0.49707,-0.73193;
19:16:26.164,-0.47681,0.49731,-0.73291;
19:16:26.174,-0.47559,0.50122,-0.72778;
19:16:26.184,-0.47510,0.49927,-0.72754;
19:16:26.194,-0.47437,0.49561,-0.72754;
19:16:26.204,-0.47583,0.49292,-0.73120;
19:16:26.214,-0.47437,0.49536,-0.73120;
19:16:26.224,-0.47314,0.49951,-0.72583;
19:16:26.234,-0.47412,0.49780,-0.73047;
19:16:26.244,-0.47168,0.49316,-0.73584;
19:16:26.254,-0.47046,0.49658,-0.73047;
19:16:26.264,-0.47095,0.50024,-0.72705;
19:16:26.274,-0.47192,0.49341,-0.73364;
19:16:26.284,-0.47437,0.49072,-0.73511;
19:16:26.294,-0.47876,0.49585,-0.73315;
19:16:26.304,-0.47778,0.49756,-0.72852;
19:16:26.314,-0.47681,0.49878,-0.72632;
19:16:26.324,-0.47388,0.50122,-0.72144;
19:16:26.334,-0.47241,0.50024,-0.72070;
19:16:26.344,-0.47266,0.49365,-0.73364;
19:16:26.354,-0.47485,0.49609,-0.73560;
19:16:26.364,-0.47388,0.49683,-0.73560;
19:16:26.374,-0.47144,0.49658,-0.73511;
19:16:26.384,-0.47363,0.49316,-0.73486;
19:16:26.394,-0.47070,0.48950,-0.73926;
19:16:26.404,-0.47021,0.49341,-0.73535;
19:16:26.414,-0.47192,0.49731,-0.73047;
19:16:26.424,-0.47095,0.49512,-0.73486;
19:16:26.434,-0.47241,0.49243,-0.73804;
19:16:26.444,-0.47168,0.49268,-0.74170;
19:16:26.454,-0.47632,0.49121,-0.73779;
19:16:26.464,-0.47949,0.49268,-0.73218;
19:16:26.474,-0.47778,0.49683,-0.72998;
19:16:26.484,-0.47778,0.49487,-0.73071;
19:16:26.494,-0.47607,0.49463,-0.73120;
19:16:26.504,-0.47363,0.49341,-0.73364;
19:16:26.514,-0.47388,0.49390,-0.73462;
19:16:26.524,-0.47241,0.49463,-0.73657;
19:16:26.534,-0.47144,0.49561,-0.73682;
19:16:26.544,-0.47144,0.49634,-0.73584;
19:16:26.554,-0.47290,0.49512,-0.73120;
19:16:26.564,-0.47632,0.49243,-0.73267;
19:16:26.574,-0.47778,0.49268,-0.73364;
19:16:26.584,-0.47803,0.49463,-0.73315;
19:16:26.594,-0.47266,0.49561,-0.73877;
19:16:26.604,-0.47070,0.49951,-0.73584;
19:16:26.614,-0.46875,0.49927,-0.73486;
19:16:26.624,-0.46631,0.49561,-0.73462;
19:16:26.634,-0.47144,0.49316,-0.73193;
19:16:26.644,-0.47534,0.48755,-0.73901;
19:16:26.654,-0.47705,0.48779,-0.73779;
19:16:26.664,-0.48096,0.49561,-0.73389;
19:16:26.674,-0.47656,0.49683,-0.73975;
19:16:26.684,-0.47339,0.50244,-0.73413;
19:16:26.694,-0.46826,0.50464,-0.71948;
19:16:26.704,-0.47559,0.49634,-0.72119;
19:16:26.714,-0.47827,0.48853,-0.72754;
19:16:26.724,-0.47852,0.49243,-0.72803;
19:16:26.734,-0.47949,0.50049,-0.72754;
19:16:26.744,-0.47510,0.50073,-0.72607;
19:16:26.754,-0.47681,0.49878,-0.72559;
19:16:26.764,-0.47852,0.49951,-0.72388;
19:16:26.774,-0.47705,0.49414,-0.72827;
19:16:26.784,-0.47437,0.49658,-0.73462;
19:16:26.794,-0.47461,0.49463,-0.73730;
19:16:26.804,-0.47168,0.49683,-0.73193;
19:16:26.814,-0.47681,0.48999,-0.74097;
19:16:26.824,-0.47046,0.49609,-0.74194;
19:16:26.834,-0.46875,0.49365,-0.74463;
19:16:26.844,-0.46753,0.49316,-0.73755;
19:16:26.854,-0.47119,0.49756,-0.73022;
19:16:26.864,-0.47632,0.49854,-0.73096;
19:16:26.874,-0.47827,0.49365,-0.72827;
19:16:26.884,-0.47803,0.49463,-0.72827;
19:16:26.894,-0.47827,0.49902,-0.72754;
19:16:26.904,-0.47900,0.50049,-0.72559;
19:16:26.914,-0.47705,0.49683,-0.72949;
19:16:26.924,-0.47656,0.49463,-0.73169;
19:16:26.934,-0.47754,0.49512,-0.72876;
19:16:26.944,-0.47729,0.49805,-0.72485;
19:16:26.954,-0.47583,0.50024,-0.72363;
19:16:26.964,-0.47607,0.49756,-0.72241;
19:16:26.974,-0.47412,0.49487,-0.72681;
19:16:26.984,-0.47559,0.49146,-0.73267;
19:16:26.994,-0.47534,0.49512,-0.73486;
19:16:27.004,-0.47339,0.49951,-0.73364;
19:16:27.014,-0.47412,0.49707,-0.73462;
19:16:27.024,-0.47021,0.49316,-0.73779;
19:16:27.034,-0.47070,0.49512,-0.73242;
19:16:27.044,-0.47363,0.49731,-0.72656;
19:16:27.054,-0.47363,0.49561,-0.72705;
19:16:27.064,-0.47339,0.49341,-0.73389;
19:16:27.074,-0.47656,0.49292,-0.73657;
19:16:27.084,-0.47339,0.49609,-0.73779;
19:16:27.094,-0.47217,0.49683,-0.73877;
19:16:27.104,-0.47168,0.49756,-0.73096;
19:16:27.114,-0.47046,0.49658,-0.73120;
19:16:27.124,-0.47144,0.49243,-0.73584;
19:16:27.134,-0.47388,0.49072,-0.73608;
19:16:27.144,-0.47168,0.49414,-0.73291;
19:16:27.154,-0.47339,0.49927,-0.72998;
19:16:27.164,-0.47461,0.49634,-0.73022;
19:16:27.174,-0.47412,0.49341,-0.73242;
19:16:27.184,-0.47412,0.49780,-0.73291;
19:16:27.194,-0.47510,0.50024,-0.72705;
19:16:27.204,-0.47632,0.49512,-0.73340;
19:16:27.214,-0.47485,0.48999,-0.73560;
19:16:27.224,-0.47583,0.49463,-0.73193;
19:16:27.234,-0.47607,0.49585,-0.73364;
19:16:27.244,-0.47534,0.49268,-0.73218;
19:16:27.254,-0.47314,0.49023,-0.73828;
19:16:27.264,-0.47607,0.48804,-0.74463;
19:16:27.274,-0.47461,0.49731,-0.73682;
19:16:27.284,-0.46997,0.50439,-0.72900;
19:16:27.294,-0.47021,0.49365,-0.73853;
19:16:27.304,-0.46875,0.48877,-0.73755;
19:16:27.314,-0.47046,0.49756,-0.73364;
19:16:27.324,-0.47119,0.49536,-0.73560;
19:16:27.334,-0.47144,0.48584,-0.74878;
19:16:27.344,-0.47095,0.48511,-0.76025;
19:16:27.354,-0.46631,0.49878,-0.74683;
19:16:27.364,-0.46680,0.49561,-0.74561;
19:16:27.374,-0.46899,0.49512,-0.73584;
19:16:27.384,-0.47290,0.49561,-0.73462;
19:16:27.394,-0.47656,0.49243,-0.73657;
19:16:27.404,-0.47827,0.49487,-0.72705;
19:16:27.414,-0.48120,0.50024,-0.72339;
19:16:27.424,-0.48022,0.50073,-0.72412;
19:16:27.434,-0.48145,0.50049,-0.71997;
19:16:27.444,-0.48071,0.50610,-0.71802;
19:16:27.454,-0.47778,0.50781,-0.71558;
19:16:27.464,-0.47998,0.51050,-0.70728;
19:16:27.474,-0.48145,0.51099,-0.70337;
19:16:27.484,-0.48267,0.50830,-0.70264;
19:16:27.494,-0.48755,0.50513,-0.70264;
19:16:27.504,-0.48999,0.50488,-0.70532;
19:16:27.514,-0.48804,0.50977,-0.70679;
19:16:27.524,-0.48413,0.51025,-0.71143;
19:16:27.534,-0.48145,0.51221,-0.71191;
19:16:27.544,-0.47827,0.50781,-0.71924;
19:16:27.554,-0.47437,0.50049,-0.72314;
19:16:27.564,-0.47607,0.50122,-0.71948;
19:16:27.574,-0.48096,0.49634,-0.72656;
19:16:27.584,-0.47998,0.49219,-0.73633;
19:16:27.594,-0.47559,0.49585,-0.73315;
19:16:27.604,-0.47363,0.49902,-0.73926;
19:16:27.614,-0.47021,0.49658,-0.75464;
19:16:27.624,-0.45947,0.49438,-0.74805;
19:16:27.634,-0.46509,0.49536,-0.74023;
19:16:27.644,-0.46997,0.49243,-0.73901;
19:16:27.654,-0.47583,0.48901,-0.74097;
19:16:27.664,-0.47754,0.49243,-0.73999;
19:16:27.674,-0.47925,0.49512,-0.73364;
19:16:27.684,-0.48267,0.50000,-0.72510;
19:16:27.694,-0.48071,0.50073,-0.72852;
19:16:27.704,-0.48047,0.49805,-0.72729;
19:16:27.714,-0.47681,0.49951,-0.72534;
19:16:27.724,-0.47681,0.50171,-0.72046;
19:16:27.734,-0.47705,0.50049,-0.71729;
19:16:27.744,-0.47705,0.49951,-0.72290;
19:16:27.754,-0.47852,0.49756,-0.72314;
19:16:27.764,-0.48193,0.49878,-0.72070;
19:16:27.774,-0.48242,0.50220,-0.71973;
19:16:27.784,-0.48022,0.50269,-0.71558;
19:16:27.794,-0.47925,0.50171,-0.72266;
19:16:27.804,-0.47974,0.50635,-0.72168;
19:16:27.814,-0.47632,0.50269,-0.72266;
19:16:27.824,-0.47656,0.49829,-0.72925;
19:16:27.834,-0.47510,0.49683,-0.73096;
19:16:27.844,-0.47363,0.49463,-0.73511;
19:16:27.854,-0.47095,0.49561,-0.73706;
19:16:27.864,-0.47021,0.49780,-0.73315;
19:16:27.874,-0.47119,0.49927,-0.73145;
19:16:27.884,-0.47339,0.49927,-0.73267;
19:16:27.894,-0.47583,0.49976,-0.73120;
19:16:27.904,-0.47681,0.49878,-0.72412;
19:16:27.914,-0.48267,0.49438,-0.72583;
19:16:27.924,-0.47852,0.49976,-0.72900;
19:16:27.934,-0.46899,0.49634,-0.73291;
19:16:27.944,-0.46875,0.49487,-0.72900;
19:16:27.954,-0.48193,0.50220,-0.72241;
19:16:27.964,-0.47949,0.50049,-0.72217;
19:16:27.974,-0.47681,0.50146,-0.72192;
19:16:27.984,-0.47632,0.50073,-0.72607;
19:16:27.994,-0.47827,0.49585,-0.72705;
19:16:28.004,-0.47974,0.49487,-0.72949;
19:16:28.014,-0.47803,0.49634,-0.73145;
19:16:28.024,-0.47705,0.49927,-0.72729;
19:16:28.034,-0.47461,0.50024,-0.72681;
19:16:28.044,-0.47314,0.49780,-0.73022;
19:16:28.054,-0.47388,0.49609,-0.73389;
19:16:28.064,-0.47241,0.49609,-0.73438;
19:16:28.074,-0.47192,0.49878,-0.73047;
19:16:28.084,-0.47290,0.49976,-0.72900;
19:16:28.094,-0.47461,0.49634,-0.73120;
19:16:28.104,-0.47485,0.49219,-0.73364;
19:16:28.114,-0.47534,0.49634,-0.73389;
19:16:28.124,-0.47461,0.49829,-0.73486;
19:16:28.134,-0.47217,0.49854,-0.73511;
19:16:28.144,-0.47266,0.50024,-0.73242;
19:16:28.154,-0.47241,0.50195,-0.72729;
19:16:28.164,-0.47388,0.50049,-0.72461;
19:16:28.174,-0.47534,0.49487,-0.72632;
19:16:28.184,-0.47461,0.49561,-0.72607;
19:16:28.194,-0.47803,0.49878,-0.72485;
19:16:28.204,-0.47290,0.49854,-0.73145;
19:16:28.214,-0.46973,0.49805,-0.73267;
19:16:28.224,-0.47168,0.50024,-0.72583;
19:16:28.234,-0.47705,0.49634,-0.72876;
19:16:28.244,-0.47900,0.49780,-0.72632;
19:16:28.254,-0.47827,0.49731,-0.73096;
19:16:28.264,-0.47729,0.49878,-0.73047;
19:16:28.274,-0.47485,0.50024,-0.72900;
19:16:28.284,-0.47095,0.50024,-0.72949;
19:16:28.294,-0.47168,0.49878,-0.72974;
19:16:28.304,-0.47168,0.50000,-0.73242;
19:16:28.314,-0.47241,0.50049,-0.73779;
19:16:28.324,-0.46875,0.49707,-0.74658;
19:16:28.334,-0.46484,0.49756,-0.75220;
19:16:28.344,-0.46143,0.49854,-0.75366;
19:16:28.354,-0.45874,0.50049,-0.75342;
19:16:28.364,-0.46069,0.49780,-0.74756;
19:16:28.374,-0.45996,0.48804,-0.74927;
19:16:28.384,-0.46533,0.48779,-0.74707;
19:16:28.394,-0.47217,0.49023,-0.73779;
19:16:28.404,-0.47949,0.49341,-0.73071;
19:16:28.414,-0.49121,0.49609,-0.71899;
19:16:28.424,-0.50000,0.50391,-0.70557;
19:16:28.434,-0.49756,0.51904,-0.69482;
19:16:28.444,-0.49268,0.52441,-0.68774;
19:16:28.454,-0.49097,0.51489,-0.69482;
19:16:28.464,-0.49170,0.49756,-0.71143;
19:16:28.474,-0.49097,0.49268,-0.71777;
19:16:28.484,-0.48901,0.49683,-0.72437;
19:16:28.494,-0.48804,0.49170,-0.73608;
19:16:28.504,-0.47852,0.49219,-0.73218;
19:16:28.514,-0.47388,0.49512,-0.72461;
19:16:28.524,-0.48340,0.49561,-0.72632;
19:16:28.534,-0.48706,0.49854,-0.72559;
19:16:28.544,-0.48779,0.48853,-0.73511;
19:16:28.554,-0.48926,0.47949,-0.74341;
19:16:28.564,-0.48145,0.49805,-0.74414;
19:16:28.574,-0.47754,0.50806,-0.74512;
19:16:28.584,-0.46338,0.50342,-0.74243;
19:16:28.594,-0.45068,0.50293,-0.73755;
19:16:28.604,-0.44849,0.50415,-0.73145;
19:16:28.614,-0.45215,0.49756,-0.73193;
19:16:28.624,-0.45630,0.49902,-0.73145;
19:16:28.634,-0.45850,0.51221,-0.72461;
19:16:28.644,-0.46167,0.52075,-0.72046;
19:16:28.654,-0.46533,0.51440,-0.72070;
19:16:28.664,-0.47583,0.49585,-0.73242;
19:16:28.674,-0.48486,0.48999,-0.73364;
19:16:28.684,-0.48901,0.49048,-0.72900;
19:16:28.694,-0.49219,0.48828,-0.73022;
19:16:28.704,-0.49268,0.48999,-0.73145;
19:16:28.714,-0.48340,0.50903,-0.72437;
19:16:28.724,-0.47363,0.51563,-0.71777;
19:16:28.734,-0.46680,0.50439,-0.72583;
19:16:28.744,-0.46948,0.50122,-0.72583;
19:16:28.754,-0.47876,0.49561,-0.72681;
19:16:28.764,-0.48413,0.49146,-0.72852;
19:16:28.774,-0.48535,0.49292,-0.72827;
19:16:28.784,-0.48682,0.49756,-0.72534;
19:16:28.794,-0.48511,0.50122,-0.72583;
19:16:28.804,-0.47534,0.50879,-0.72021;
19:16:28.814,-0.47290,0.51245,-0.70752;
19:16:28.824,-0.48267,0.50659,-0.71338;
19:16:28.834,-0.48657,0.49683,-0.72192;
19:16:28.844,-0.49048,0.49268,-0.72534;
19:16:28.854,-0.45581,0.51416,-0.72949;
19:16:28.864,-0.45874,0.50586,-0.72925;
19:16:28.874,-0.46655,0.48657,-0.73901;
19:16:28.884,-0.46997,0.47729,-0.74805;
19:16:28.894,-0.46631,0.49243,-0.73828;
19:16:28.904,-0.46191,0.51147,-0.72510;
19:16:28.914,-0.45996,0.51465,-0.71875;
19:16:28.924,-0.46582,0.50342,-0.72192;
19:16:28.934,-0.47632,0.49268,-0.73022;
19:16:28.944,-0.48877,0.48511,-0.73755;
19:16:28.954,-0.49976,0.48047,-0.74048;
19:16:28.964,-0.50220,0.48511,-0.74121;
19:16:28.974,-0.49121,0.49658,-0.73267;
19:16:28.984,-0.47705,0.49927,-0.73096;
19:16:28.994,-0.47168,0.49316,-0.73315;
19:16:29.004,-0.47778,0.48364,-0.73242;
19:16:29.014,-0.46973,0.50830,-0.72339;
19:16:29.024,-0.46436,0.50342,-0.73438;
19:16:29.034,-0.46289,0.49585,-0.71997;
19:16:29.044,-0.47778,0.49463,-0.73853;
19:16:29.054,-0.47656,0.50000,-0.73926;
19:16:29.064,-0.46484,0.49805,-0.74731;
19:16:29.074,-0.47144,0.49072,-0.74097;
19:16:29.084,-0.47363,0.48633,-0.73364;
19:16:29.094,-0.47168,0.48901,-0.72974;
19:16:29.104,-0.47021,0.49414,-0.72803;
19:16:29.114,-0.46802,0.49561,-0.73364;
19:16:29.124,-0.46924,0.48682,-0.74609;
19:16:29.134,-0.46875,0.48193,-0.75488;
19:16:29.144,-0.46997,0.48682,-0.75854;
19:16:29.154,-0.47412,0.48730,-0.75122;
19:16:29.164,-0.47290,0.48511,-0.74927;
19:16:29.174,-0.46924,0.49097,-0.73901;
19:16:29.184,-0.46802,0.49243,-0.72705;
19:16:29.194,-0.47314,0.48950,-0.73315;
19:16:29.204,-0.47290,0.49878,-0.72754;
19:16:29.214,-0.46753,0.50000,-0.72729;
19:16:29.224,-0.47095,0.48364,-0.73730;
19:16:29.234,-0.46924,0.48657,-0.73804;
19:16:29.244,-0.47290,0.49414,-0.74756;
19:16:29.254,-0.47314,0.48877,-0.74927;
19:16:29.264,-0.46826,0.48730,-0.74902;
19:16:29.274,-0.46655,0.49243,-0.75098;
19:16:29.284,-0.46191,0.49536,-0.74512;
19:16:29.294,-0.46021,0.49072,-0.74878;
19:16:29.304,-0.45923,0.48828,-0.74902;
19:16:29.314,-0.46533,0.48682,-0.75244;
19:16:29.324,-0.46973,0.48560,-0.74585;
19:16:29.334,-0.46802,0.49194,-0.73755;
19:16:29.344,-0.46997,0.49512,-0.73535;
19:16:29.354,-0.47021,0.49414,-0.73218;
19:16:29.364,-0.47388,0.49438,-0.73169;
19:16:29.374,-0.47974,0.48560,-0.73828;
19:16:29.384,-0.48193,0.48315,-0.74487;
19:16:29.394,-0.48218,0.49194,-0.73755;
19:16:29.404,-0.47681,0.49561,-0.73242;
19:16:29.414,-0.47314,0.49634,-0.73071;
19:16:29.424,-0.47144,0.49731,-0.72485;
19:16:29.434,-0.47021,0.49268,-0.73071;
19:16:29.444,-0.46948,0.48535,-0.73779;
19:16:29.454,-0.47070,0.48608,-0.73486;
19:16:29.464,-0.47437,0.49365,-0.73608;
19:16:29.474,-0.47314,0.50073,-0.73560;
19:16:29.484,-0.46899,0.49878,-0.73706;
19:16:29.494,-0.46533,0.49536,-0.73682;
19:16:29.504,-0.46460,0.49292,-0.73608;
19:16:29.514,-0.46777,0.48486,-0.74512;
19:16:29.524,-0.46851,0.48828,-0.73999;
19:16:29.534,-0.46802,0.50024,-0.72925;
19:16:29.544,-0.46851,0.49829,-0.72656;
19:16:29.554,-0.46753,0.49487,-0.72876;
19:16:29.564,-0.46558,0.50073,-0.72729;
19:16:29.574,-0.46997,0.49756,-0.72803;
19:16:29.584,-0.47974,0.48560,-0.74048;
19:16:29.594,-0.47827,0.48364,-0.75000;
19:16:29.604,-0.47583,0.48926,-0.75073;
19:16:29.614,-0.46851,0.49438,-0.74268;
19:16:29.624,-0.46558,0.48633,-0.74561;
19:16:29.634,-0.47070,0.49023,-0.73560;
19:16:29.644,-0.47144,0.50024,-0.71753;
19:16:29.654,-0.48022,0.48608,-0.73267;
19:16:29.664,-0.47778,0.46924,-0.73901;
19:16:29.674,-0.47925,0.47095,-0.73462;
19:16:29.684,-0.48071,0.48389,-0.74121;
19:16:29.694,-0.47412,0.49023,-0.72217;
19:16:29.704,-0.48389,0.48486,-0.72070;
19:16:29.714,-0.48999,0.47266,-0.74438;
19:16:29.724,-0.48584,0.46143,-0.76123;
19:16:29.734,-0.48584,0.44727,-0.76489;
19:16:29.744,-0.49561,0.43921,-0.76123;
19:16:29.754,-0.50244,0.44727,-0.75635;
19:16:29.764,-0.50146,0.45972,-0.75562;
19:16:29.774,-0.49121,0.46582,-0.75464;
19:16:29.784,-0.47583,0.45752,-0.74487;
19:16:29.794,-0.47412,0.45996,-0.74341;
19:16:29.804,-0.47632,0.48145,-0.73730;
19:16:29.814,-0.47412,0.49487,-0.72559;
19:16:29.824,-0.46875,0.50146,-0.71460;
19:16:29.834,-0.45459,0.51636,-0.69263;
19:16:29.844,-0.44214,0.52466,-0.68384;
19:16:29.854,-0.44043,0.50952,-0.69580;
19:16:29.864,-0.44727,0.48853,-0.70703;
19:16:29.874,-0.45996,0.47778,-0.71558;
19:16:29.884,-0.46704,0.48608,-0.71899;
19:16:29.894,-0.46338,0.50024,-0.71753;
19:16:29.904,-0.45850,0.50195,-0.71729;
19:16:29.914,-0.45679,0.49463,-0.71899;
19:16:29.924,-0.46045,0.48657,-0.73120;
19:16:29.934,-0.46411,0.47144,-0.75171;
19:16:29.944,-0.46631,0.45337,-0.76758;
19:16:29.954,-0.46606,0.45020,-0.76440;
19:16:29.964,-0.45654,0.45459,-0.75952;
19:16:29.974,-0.44336,0.46387,-0.77075;
19:16:29.984,-0.42334,0.47046,-0.77905;
19:16:29.994,-0.40210,0.47534,-0.77563;
19:16:30.004,-0.38965,0.49390,-0.76465;
19:16:30.014,-0.38477,0.50244,-0.76807;
19:16:30.024,-0.38574,0.49829,-0.79028;
19:16:30.034,-0.38940,0.48926,-0.81177;
19:16:30.044,-0.39429,0.47461,-0.80615;
19:16:30.054,-0.40649,0.44702,-0.79053;
19:16:30.064,-0.42358,0.41260,-0.80176;
19:16:30.074,-0.43335,0.38867,-0.82520;
19:16:30.084,-0.42554,0.38062,-0.85620;
19:16:30.094,-0.40894,0.38647,-0.87695;
19:16:30.104,-0.39673,0.40820,-0.88330;
19:16:30.114,-0.38672,0.43091,-0.88257;
19:16:30.124,-0.38013,0.43506,-0.86987;
19:16:30.134,-0.38062,0.41772,-0.86938;
19:16:30.144,-0.38501,0.39355,-0.86328;
19:16:30.154,-0.39502,0.37720,-0.85376;
19:16:30.164,-0.40308,0.37085,-0.85645;
19:16:30.174,-0.39819,0.38281,-0.85498;
19:16:30.184,-0.39136,0.39917,-0.85620;
19:16:30.194,-0.38623,0.41064,-0.86426;
19:16:30.204,-0.38330,0.40308,-0.86060;
19:16:30.214,-0.38599,0.39478,-0.85278;
19:16:30.224,-0.39331,0.38623,-0.84668;
19:16:30.234,-0.40381,0.38452,-0.82886;
19:16:30.244,-0.42773,0.40796,-0.79907;
19:16:30.254,-0.42505,0.40381,-0.81128;
19:16:30.264,-0.42554,0.39160,-0.79175;
19:16:30.274,-0.43237,0.43262,-0.78564;
19:16:30.284,-0.41724,0.41113,-0.79639;
19:16:30.294,-0.40967,0.40967,-0.78784;
19:16:30.304,-0.41211,0.42358,-0.80420;
19:16:30.314,-0.39526,0.42847,-0.82959;
19:16:30.324,-0.39111,0.40015,-0.84790;
19:16:30.334,-0.38672,0.37549,-0.87109;
19:16:30.344,-0.38013,0.38428,-0.88062;
19:16:30.354,-0.36523,0.39673,-0.88159;
19:16:30.364,-0.36304,0.39526,-0.88794;
19:16:30.374,-0.35791,0.39136,-0.88330;
19:16:30.384,-0.35303,0.39111,-0.89014;
19:16:30.394,-0.36011,0.38477,-0.90015;
19:16:30.404,-0.36768,0.38403,-0.89355;
19:16:30.414,-0.37183,0.38940,-0.87939;
19:16:30.424,-0.37036,0.39917,-0.86963;
19:16:30.434,-0.37427,0.39624,-0.86572;
19:16:30.444,-0.37817,0.37817,-0.87183;
19:16:30.454,-0.38062,0.35864,-0.87842;
19:16:30.464,-0.38989,0.35327,-0.86694;
19:16:30.474,-0.40186,0.37207,-0.85107;
19:16:30.484,-0.40942,0.39941,-0.83569;
19:16:30.494,-0.40845,0.42529,-0.81860;
19:16:30.504,-0.40234,0.42993,-0.81226;
19:16:30.514,-0.39844,0.40552,-0.80811;
19:16:30.524,-0.39917,0.38208,-0.81274;
19:16:30.534,-0.40259,0.38330,-0.81445;
19:16:30.544,-0.40649,0.40454,-0.80176;
19:16:30.554,-0.40601,0.42725,-0.80029;
19:16:30.564,-0.40332,0.42700,-0.80371;
19:16:30.574,-0.40283,0.40552,-0.81348;
19:16:30.584,-0.40405,0.38770,-0.82031;
19:16:30.594,-0.40308,0.39673,-0.80469;
19:16:30.604,-0.40137,0.41235,-0.78613;
19:16:30.614,-0.40137,0.41992,-0.77612;
19:16:30.624,-0.40332,0.43188,-0.77417;
19:16:30.634,-0.40308,0.43335,-0.78564;
19:16:30.644,-0.40137,0.42432,-0.79858;
19:16:30.654,-0.40527,0.41797,-0.80859;
19:16:30.664,-0.40503,0.41699,-0.80664;
19:16:30.674,-0.40430,0.42139,-0.81104;
19:16:30.684,-0.40381,0.41089,-0.82056;
19:16:30.694,-0.40356,0.38354,-0.83154;
19:16:30.704,-0.40308,0.37354,-0.84155;
19:16:30.714,-0.40405,0.37964,-0.84351;
19:16:30.724,-0.40430,0.39209,-0.84473;
19:16:30.734,-0.39966,0.41064,-0.84595;
19:16:30.744,-0.39355,0.41724,-0.84717;
19:16:30.754,-0.38770,0.40991,-0.84424;
19:16:30.764,-0.37817,0.40381,-0.84619;
19:16:30.774,-0.36475,0.24658,-0.82422;
19:16:30.784,-0.39746,0.40112,-0.87744;
19:16:30.794,-0.34131,0.44507,-0.85229;
19:16:30.804,-0.40991,0.41748,-0.85059;
19:16:30.814,-0.40332,0.49268,-0.88403;
19:16:30.824,-0.37842,0.38306,-0.84351;
19:16:30.834,-0.45679,0.42554,-0.85986;
19:16:30.844,-0.28345,0.43994,-0.81665;
19:16:30.854,-0.29956,0.39478,-0.81030;
19:16:30.864,-0.53174,0.36255,-0.83765;
19:16:30.874,-0.45508,0.38281,-0.83569;
19:16:30.884,-0.46460,0.34595,-0.82813;
19:16:30.894,-0.50610,0.31689,-0.82886;
19:16:30.904,-0.41211,0.34546,-0.83765;
19:16:30.914,-0.37500,0.42065,-0.84106;
19:16:30.924,-0.37280,0.42261,-0.82300;
19:16:30.934,-0.34961,0.42407,-0.82837;
19:16:30.944,-0.35474,0.43042,-0.83032;
19:16:30.954,-0.36914,0.40332,-0.81982;
19:16:30.964,-0.44116,0.34326,-0.82837;
19:16:30.974,-0.43213,0.32300,-0.83911;
19:16:30.984,-0.38428,0.40991,-0.84399;
19:16:30.994,-0.35522,0.50439,-0.84619;
19:16:31.004,-0.35352,0.51538,-0.85352;
19:16:31.014,-0.34766,0.45386,-0.85107;
19:16:31.024,-0.37354,0.47412,-0.86694;
19:16:31.034,-0.35889,0.46899,-0.84082;
19:16:31.044,-0.27344,0.38403,-0.77930;
19:16:31.054,-0.31128,0.47266,-0.78491;
19:16:31.064,-0.28931,0.51929,-0.79785;
19:16:31.074,-0.30005,0.44849,-0.81299;
19:16:31.084,-0.32495,0.50244,-0.82471;
19:16:31.094,-0.29126,0.55298,-0.82202;
19:16:31.104,-0.27856,0.58325,-0.81006;
19:16:31.114,-0.31152,0.59399,-0.80103;
19:16:31.124,-0.33130,0.55981,-0.80420;
19:16:31.134,-0.32007,0.54395,-0.79126;
19:16:31.144,-0.31616,0.55518,-0.78174;
19:16:31.154,-0.28760,0.57983,-0.76563;
19:16:31.164,-0.31494,0.57227,-0.75439;
19:16:31.174,-0.32397,0.54834,-0.74829;
19:16:31.184,-0.29126,0.56250,-0.73853;
19:16:31.194,-0.26709,0.58203,-0.73389;
19:16:31.204,-0.29028,0.57300,-0.73682;
19:16:31.214,-0.29541,0.55713,-0.73267;
19:16:31.224,-0.31006,0.54883,-0.73950;
19:16:31.234,-0.32642,0.53491,-0.74731;
19:16:31.244,-0.29150,0.54077,-0.75122;
19:16:31.254,-0.28979,0.54810,-0.76855;
19:16:31.264,-0.29272,0.54614,-0.77490;
19:16:31.274,-0.27539,0.59399,-0.77661;
19:16:31.284,-0.26489,0.60303,-0.76855;
19:16:31.294,-0.26196,0.57642,-0.77148;
19:16:31.304,-0.26318,0.57178,-0.78809;
19:16:31.314,-0.27173,0.59302,-0.80029;
19:16:31.324,-0.29785,0.60010,-0.80444;
19:16:31.334,-0.29321,0.58325,-0.79712;
19:16:31.344,-0.27295,0.56738,-0.79004;
19:16:31.354,-0.25830,0.54321,-0.79590;
19:16:31.364,-0.25195,0.53711,-0.80908;
19:16:31.374,-0.26001,0.54199,-0.81445;
19:16:31.384,-0.26001,0.55737,-0.80103;
19:16:31.394,-0.27759,0.53760,-0.78857;
19:16:31.404,-0.27710,0.55957,-0.78296;
19:16:31.414,-0.27417,0.56250,-0.80688;
19:16:31.424,-0.25537,0.58984,-0.79053;
19:16:31.434,-0.26392,0.53809,-0.76196;
19:16:31.444,-0.29053,0.54565,-0.76782;
19:16:31.454,-0.31201,0.53101,-0.79712;
19:16:31.464,-0.30176,0.54956,-0.78320;
19:16:31.474,-0.27490,0.55640,-0.77295;
19:16:31.484,-0.27051,0.55640,-0.77002;
19:16:31.494,-0.28564,0.55005,-0.77222;
19:16:31.504,-0.30811,0.54980,-0.77344;
19:16:31.514,-0.31934,0.54321,-0.77466;
19:16:31.524,-0.32642,0.53760,-0.77808;
19:16:31.534,-0.32349,0.53809,-0.79150;
19:16:31.544,-0.31079,0.55078,-0.79321;
19:16:31.554,-0.30688,0.54614,-0.78491;
19:16:31.564,-0.30396,0.53174,-0.79053;
19:16:31.574,-0.28394,0.53955,-0.79834;
19:16:31.584,-0.29297,0.53662,-0.81006;
19:16:31.594,-0.32080,0.52148,-0.80127;
19:16:31.604,-0.31689,0.53003,-0.78101;
19:16:31.614,-0.31909,0.53711,-0.78052;
19:16:31.624,-0.31763,0.53955,-0.79272;
19:16:31.634,-0.30688,0.54932,-0.80688;
19:16:31.644,-0.31299,0.52026,-0.81250;
19:16:31.654,-0.30200,0.49780,-0.81470;
19:16:31.664,-0.29272,0.51392,-0.81836;
19:16:31.674,-0.31201,0.50537,-0.81250;
19:16:31.684,-0.31958,0.52661,-0.79614;
19:16:31.694,-0.33032,0.52563,-0.80444;
19:16:31.704,-0.31445,0.53076,-0.81055;
19:16:31.714,-0.29590,0.54102,-0.80493;
19:16:31.724,-0.28076,0.53394,-0.79419;
19:16:31.734,-0.25684,0.56372,-0.78247;
19:16:31.744,-0.26367,0.54980,-0.78394;
19:16:31.754,-0.27515,0.52930,-0.78101;
19:16:31.764,-0.30249,0.52100,-0.79858;
19:16:31.774,-0.30493,0.52441,-0.80469;
19:16:31.784,-0.29810,0.53369,-0.79004;
19:16:31.794,-0.30347,0.53467,-0.78271;
19:16:31.804,-0.28711,0.55029,-0.79004;
19:16:31.814,-0.26758,0.58154,-0.79785;
19:16:31.824,-0.26392,0.60938,-0.79907;
19:16:31.834,-0.28027,0.60718,-0.79468;
19:16:31.844,-0.29932,0.54639,-0.76099;
19:16:31.854,-0.29785,0.56177,-0.76440;
19:16:31.864,-0.31787,0.54541,-0.76685;
19:16:31.874,-0.29053,0.53882,-0.77466;
19:16:31.884,-0.29858,0.61841,-0.76099;
19:16:31.894,-0.29102,0.49707,-0.79077;
19:16:31.904,-0.29810,0.53125,-0.77783;
19:16:31.914,-0.28320,0.64868,-0.75830;
19:16:31.924,-0.29688,0.57739,-0.75757;
19:16:31.934,-0.33813,0.56128,-0.75391;
19:16:31.944,-0.30713,0.52686,-0.77295;
19:16:31.954,-0.30420,0.51489,-0.76514;
19:16:31.964,-0.28882,0.53564,-0.77515;
19:16:31.974,-0.28906,0.55249,-0.76733;
19:16:31.984,-0.28833,0.56665,-0.77808;
19:16:31.994,-0.30029,0.56812,-0.77637;
19:16:32.004,-0.30518,0.57422,-0.78394;
19:16:32.014,-0.29297,0.56787,-0.78442;
19:16:32.024,-0.29272,0.57739,-0.78687;
19:16:32.034,-0.31812,0.54956,-0.78857;
19:16:32.044,-0.27686,0.55908,-0.78003;
19:16:32.054,-0.25854,0.55249,-0.78223;
19:16:32.064,-0.25903,0.54370,-0.78979;
19:16:32.074,-0.26270,0.55444,-0.79175;
19:16:32.084,-0.27271,0.54492,-0.79688;
19:16:32.094,-0.28174,0.56934,-0.79028;
19:16:32.104,-0.31836,0.55396,-0.79150;
19:16:32.114,-0.31885,0.54688,-0.79883;
19:16:32.124,-0.31421,0.54663,-0.80444;
19:16:32.134,-0.31421,0.54297,-0.80298;
19:16:32.144,-0.30151,0.54468,-0.79590;
19:16:32.154,-0.28101,0.54883,-0.79517;
19:16:32.164,-0.27661,0.54321,-0.79297;
19:16:32.174,-0.27979,0.53760,-0.79907;
19:16:32.184,-0.27734,0.54834,-0.79541;
19:16:32.194,-0.30640,0.55835,-0.78491;
19:16:32.204,-0.29175,0.55933,-0.79102;
19:16:32.214,-0.26440,0.56201,-0.78662;
19:16:32.224,-0.26294,0.56592,-0.77856;
19:16:32.234,-0.26025,0.55786,-0.77979;
19:16:32.244,-0.28320,0.54517,-0.77563;
19:16:32.254,-0.29761,0.54492,-0.77710;
19:16:32.264,-0.31201,0.56714,-0.77515;
19:16:32.274,-0.32544,0.56958,-0.77734;
19:16:32.284,-0.29980,0.57739,-0.76831;
19:16:32.294,-0.28491,0.59424,-0.75317;
19:16:32.304,-0.28418,0.58716,-0.75562;
19:16:32.314,-0.28320,0.58179,-0.75122;
19:16:32.324,-0.28833,0.57568,-0.75098;
19:16:32.334,-0.27417,0.58276,-0.76611;
19:16:32.344,-0.27954,0.57642,-0.77661;
19:16:32.354,-0.26978,0.56763,-0.79272;
19:16:32.364,-0.25659,0.57788,-0.80298;
19:16:32.374,-0.26294,0.57373,-0.79102;
19:16:32.384,-0.26221,0.56567,-0.78149;
19:16:32.394,-0.26440,0.56738,-0.77832;
19:16:32.404,-0.26685,0.56885,-0.77783;
19:16:32.414,-0.27588,0.57373,-0.75024;
19:16:32.424,-0.28906,0.58789,-0.73193;
19:16:32.434,-0.31396,0.59766,-0.73584;
19:16:32.444,-0.32056,0.60693,-0.72046;
19:16:32.454,-0.29834,0.60718,-0.71069;
19:16:32.464,-0.28833,0.61279,-0.70508;
19:16:32.474,-0.28687,0.62817,-0.69946;
19:16:32.484,-0.28662,0.63403,-0.68237;
19:16:32.494,-0.29199,0.62476,-0.68335;
19:16:32.504,-0.30029,0.61157,-0.70068;
19:16:32.514,-0.31567,0.61157,-0.70142;
19:16:32.524,-0.32178,0.61914,-0.69629;
19:16:32.534,-0.31592,0.63281,-0.68262;
19:16:32.544,-0.31372,0.66138,-0.70605;
19:16:32.554,-0.31104,0.65918,-0.73511;
19:16:32.564,-0.29028,0.64941,-0.72778;
19:16:32.574,-0.31494,0.63623,-0.70361;
19:16:32.584,-0.33984,0.64600,-0.72778;
19:16:32.594,-0.34399,0.65405,-0.72119;
19:16:32.604,-0.32373,0.63892,-0.70361;
19:16:32.614,-0.31494,0.62622,-0.71436;
19:16:32.624,-0.32227,0.59399,-0.72583;
19:16:32.634,-0.30713,0.60767,-0.72046;
19:16:32.644,-0.29517,0.63989,-0.71533;
19:16:32.654,-0.29541,0.65161,-0.70410;
19:16:32.664,-0.31616,0.65405,-0.68188;
19:16:32.674,-0.33228,0.65747,-0.69312;
19:16:32.684,-0.34595,0.66479,-0.71289;
19:16:32.694,-0.34839,0.64233,-0.72290;
19:16:32.704,-0.32935,0.62964,-0.72290;
19:16:32.714,-0.31201,0.62915,-0.71191;
19:16:32.724,-0.30859,0.62769,-0.70874;
19:16:32.734,-0.31934,0.62476,-0.70825;
19:16:32.744,-0.34473,0.61035,-0.70801;
19:16:32.754,-0.35400,0.59766,-0.69702;
19:16:32.764,-0.35938,0.57617,-0.68579;
19:16:32.774,-0.35596,0.55054,-0.69531;
19:16:32.784,-0.33911,0.55640,-0.71094;
19:16:32.794,-0.33447,0.56738,-0.70752;
19:16:32.804,-0.33862,0.57275,-0.69604;
19:16:32.814,-0.34204,0.57324,-0.69751;
19:16:32.824,-0.35693,0.58008,-0.71997;
19:16:32.834,-0.34985,0.58252,-0.73462;
19:16:32.844,-0.33325,0.58813,-0.72534;
19:16:32.854,-0.32471,0.59009,-0.72412;
19:16:32.864,-0.30737,0.58472,-0.72754;
19:16:32.874,-0.32080,0.56250,-0.74316;
19:16:32.884,-0.37158,0.50806,-0.77100;
19:16:32.894,-0.37769,0.46973,-0.79370;
19:16:32.904,-0.33594,0.47241,-0.79248;
19:16:32.914,-0.32080,0.48584,-0.78125;
19:16:32.924,-0.32080,0.50122,-0.78516;
19:16:32.934,-0.32007,0.51953,-0.80322;
19:16:32.944,-0.31299,0.52197,-0.83228;
19:16:32.954,-0.30884,0.44946,-0.88965;
19:16:32.964,-0.28491,0.45435,-0.88477;
19:16:32.974,-0.28760,0.45435,-0.87524;
19:16:32.984,-0.28931,0.44873,-0.87183;
19:16:32.994,-0.28760,0.44824,-0.88208;
19:16:33.004,-0.27905,0.45532,-0.87793;
19:16:33.014,-0.28320,0.46411,-0.87231;
19:16:33.024,-0.31274,0.46582,-0.87085;
19:16:33.034,-0.32593,0.45825,-0.86084;
19:16:33.044,-0.31299,0.45898,-0.85156;
19:16:33.054,-0.30078,0.46191,-0.84521;
19:16:33.064,-0.28955,0.45605,-0.84399;
19:16:33.074,-0.29370,0.45215,-0.84644;
19:16:33.084,-0.30591,0.45288,-0.85132;
19:16:33.094,-0.31323,0.46021,-0.84741;
19:16:33.104,-0.33130,0.45801,-0.82788;
19:16:33.114,-0.32275,0.46216,-0.82886;
19:16:33.124,-0.29248,0.47412,-0.83643;
19:16:33.134,-0.27368,0.48071,-0.84106;
19:16:33.144,-0.26660,0.48999,-0.82764;
19:16:33.154,-0.27563,0.50952,-0.80713;
19:16:33.164,-0.30737,0.52783,-0.80225;
19:16:33.174,-0.31812,0.51953,-0.80688;
19:16:33.184,-0.27222,0.51172,-0.80615;
19:16:33.194,-0.25830,0.50830,-0.80493;
19:16:33.204,-0.26807,0.49512,-0.82031;
19:16:33.214,-0.27246,0.49341,-0.82031;
19:16:33.224,-0.27637,0.50757,-0.81445;
19:16:33.234,-0.30908,0.50952,-0.81421;
19:16:33.244,-0.31934,0.50342,-0.81323;
19:16:33.254,-0.28516,0.51123,-0.81494;
19:16:33.264,-0.27344,0.50732,-0.81543;
19:16:33.274,-0.27100,0.50659,-0.81152;
19:16:33.284,-0.28418,0.51440,-0.81519;
19:16:33.294,-0.28491,0.53442,-0.81934;
19:16:33.304,-0.27197,0.54688,-0.81079;
19:16:33.314,-0.27319,0.53027,-0.80664;
19:16:33.324,-0.26904,0.51978,-0.80176;
19:16:33.334,-0.26587,0.50073,-0.81274;
19:16:33.344,-0.27026,0.48096,-0.83521;
19:16:33.354,-0.26147,0.48828,-0.84888;
19:16:33.364,-0.25562,0.49756,-0.85327;
19:16:33.374,-0.23364,0.52173,-0.84058;
19:16:33.384,-0.21240,0.52686,-0.85938;
19:16:33.394,-0.22607,0.54443,-0.79297;
19:16:33.404,-0.28589,0.57446,-0.73462;
19:16:33.414,-0.40723,0.44897,-0.83838;
19:16:33.424,-0.51538,0.54614,-0.86157;
19:16:33.434,-0.31909,0.78491,-0.80396;
19:16:33.444,-0.39404,0.34106,-0.77148;
19:16:33.454,-0.48975,0.14893,-0.77148;
19:16:33.464,-0.34863,0.44531,-0.78687;
19:16:33.474,-0.39185,0.44458,-0.80933;
19:16:33.484,-0.40649,0.41553,-0.79688;
19:16:33.494,-0.39355,0.41187,-0.78540;
19:16:33.504,-0.38647,0.44263,-0.79004;
19:16:33.514,-0.38770,0.42798,-0.79370;
19:16:33.524,-0.36816,0.45313,-0.80688;
19:16:33.534,-0.36133,0.45581,-0.83057;
19:16:33.544,-0.35522,0.43457,-0.84692;
19:16:33.554,-0.33838,0.42212,-0.86011;
19:16:33.564,-0.33667,0.42456,-0.86865;
19:16:33.574,-0.34058,0.42456,-0.87427;
19:16:33.584,-0.33862,0.42432,-0.87476;
19:16:33.594,-0.34229,0.41455,-0.87378;
19:16:33.604,-0.34375,0.40991,-0.87305;
19:16:33.614,-0.34692,0.41479,-0.87134;
19:16:33.624,-0.34644,0.42798,-0.86279;
19:16:33.634,-0.34717,0.43750,-0.85254;
19:16:33.644,-0.35962,0.43262,-0.85156;
19:16:33.654,-0.36401,0.43018,-0.84302;
19:16:33.664,-0.36182,0.43213,-0.83154;
19:16:33.674,-0.36450,0.43945,-0.83936;
19:16:33.684,-0.35742,0.43579,-0.83813;
19:16:33.694,-0.36426,0.43872,-0.84595;
19:16:33.704,-0.37134,0.43530,-0.84985;
19:16:33.714,-0.37109,0.42651,-0.85449;
19:16:33.724,-0.36816,0.41577,-0.85254;
19:16:33.734,-0.36719,0.41675,-0.84326;
19:16:33.744,-0.36401,0.42358,-0.83862;
19:16:33.754,-0.36475,0.43140,-0.83496;
19:16:33.764,-0.36597,0.44922,-0.82324;
19:16:33.774,-0.37158,0.45142,-0.82300;
19:16:33.784,-0.37866,0.43457,-0.82593;
19:16:33.794,-0.38501,0.42847,-0.81909;
19:16:33.804,-0.38867,0.43213,-0.81787;
19:16:33.814,-0.38965,0.43481,-0.82446;
19:16:33.824,-0.38794,0.44214,-0.82983;
19:16:33.834,-0.38159,0.44604,-0.82129;
19:16:33.844,-0.37256,0.44287,-0.81372;
19:16:33.854,-0.36890,0.44263,-0.81226;
19:16:33.864,-0.37573,0.44775,-0.80664;
19:16:33.874,-0.38037,0.45923,-0.79736;
19:16:33.884,-0.38550,0.47339,-0.78516;
19:16:33.894,-0.38818,0.48047,-0.77393;
19:16:33.904,-0.38721,0.47681,-0.78174;
19:16:33.914,-0.38599,0.46118,-0.79028;
19:16:33.924,-0.38501,0.45947,-0.78271;
19:16:33.934,-0.38916,0.47095,-0.78467;
19:16:33.944,-0.39502,0.47461,-0.78809;
19:16:33.954,-0.39624,0.47217,-0.78662;
19:16:33.964,-0.39478,0.45972,-0.78442;
19:16:33.974,-0.39746,0.45288,-0.78491;
19:16:33.984,-0.39551,0.45972,-0.78467;
19:16:33.994,-0.39160,0.47339,-0.78491;
19:16:34.004,-0.38843,0.47754,-0.79150;
19:16:34.014,-0.38525,0.46973,-0.79077;
19:16:34.024,-0.38428,0.46240,-0.79321;
19:16:34.034,-0.38184,0.46265,-0.79492;
19:16:34.044,-0.38306,0.46558,-0.78760;
19:16:34.054,-0.38525,0.45801,-0.78882;
19:16:34.064,-0.38647,0.45337,-0.80029;
19:16:34.074,-0.38696,0.45630,-0.80298;
19:16:34.084,-0.38452,0.45581,-0.79541;
19:16:34.094,-0.38574,0.45947,-0.80737;
19:16:34.104,-0.38379,0.45850,-0.81641;
19:16:34.114,-0.37988,0.44653,-0.81812;
19:16:34.124,-0.37891,0.43921,-0.82837;
19:16:34.134,-0.37573,0.44067,-0.82983;
19:16:34.144,-0.37402,0.44067,-0.83179;
19:16:34.154,-0.37378,0.43042,-0.84229;
19:16:34.164,-0.37354,0.41772,-0.84790;
19:16:34.174,-0.37329,0.42139,-0.84375;
19:16:34.184,-0.37305,0.43555,-0.84204;
19:16:34.194,-0.37061,0.44067,-0.84668;
19:16:34.204,-0.36768,0.43433,-0.84863;
19:16:34.214,-0.36621,0.42407,-0.85181;
19:16:34.224,-0.36548,0.42017,-0.85254;
19:16:34.234,-0.36768,0.42212,-0.84961;
19:16:34.244,-0.36572,0.42603,-0.84668;
19:16:34.254,-0.36279,0.43262,-0.84790;
19:16:34.264,-0.36206,0.43774,-0.84302;
19:16:34.274,-0.36279,0.44189,-0.84082;
19:16:34.284,-0.36230,0.43945,-0.83960;
19:16:34.294,-0.36304,0.43066,-0.83545;
19:16:34.304,-0.36743,0.42847,-0.83301;
19:16:34.314,-0.37451,0.42871,-0.83667;
19:16:34.324,-0.37769,0.42529,-0.84082;
19:16:34.334,-0.37573,0.42529,-0.83789;
19:16:34.344,-0.37573,0.42383,-0.83960;
19:16:34.354,-0.37354,0.42700,-0.83765;
19:16:34.364,-0.37109,0.43188,-0.83545;
19:16:34.374,-0.36938,0.42798,-0.83667;
19:16:34.384,-0.37207,0.43237,-0.83252;
19:16:34.394,-0.37256,0.43750,-0.83032;
19:16:34.404,-0.37158,0.43384,-0.83154;
19:16:34.414,-0.37085,0.42871,-0.83179;
19:16:34.424,-0.37207,0.42188,-0.83447;
19:16:34.434,-0.37329,0.42285,-0.83521;
19:16:34.444,-0.37183,0.43262,-0.82837;
19:16:34.454,-0.37305,0.43750,-0.82422;
19:16:34.464,-0.37451,0.43481,-0.82275;
19:16:34.474,-0.37622,0.43481,-0.82153;
19:16:34.484,-0.37915,0.43774,-0.81689;
19:16:34.494,-0.38208,0.44019,-0.81519;
19:16:34.504,-0.38086,0.44116,-0.82446;
19:16:34.514,-0.37939,0.43335,-0.82568;
19:16:34.524,-0.37939,0.43286,-0.81958;
19:16:34.534,-0.37500,0.44092,-0.82129;
19:16:34.544,-0.36987,0.43677,-0.82910;
19:16:34.554,-0.36890,0.43384,-0.82788;
19:16:34.564,-0.36914,0.43506,-0.82495;
19:16:34.574,-0.37109,0.43091,-0.82813;
19:16:34.584,-0.37280,0.43042,-0.82471;
19:16:34.594,-0.37793,0.43018,-0.82080;
19:16:34.604,-0.38208,0.42578,-0.82544;
19:16:34.614,-0.38086,0.42041,-0.83081;
19:16:34.624,-0.37793,0.42407,-0.82935;
19:16:34.634,-0.37622,0.42896,-0.82959;
19:16:34.644,-0.37085,0.43262,-0.83447;
19:16:34.654,-0.36768,0.43140,-0.83569;
19:16:34.664,-0.36914,0.42725,-0.83203;
19:16:34.674,-0.36743,0.42944,-0.82983;
19:16:34.684,-0.36768,0.43091,-0.82813;
19:16:34.694,-0.36597,0.43188,-0.83203;
19:16:34.704,-0.36792,0.42480,-0.83984;
19:16:34.714,-0.36865,0.42041,-0.84131;
19:16:34.724,-0.36792,0.42456,-0.84351;
19:16:34.734,-0.36548,0.43164,-0.84229;
19:16:34.744,-0.36328,0.43262,-0.84497;
19:16:34.754,-0.36133,0.42676,-0.84375;
19:16:34.764,-0.35889,0.42383,-0.84424;
19:16:34.774,-0.35815,0.42212,-0.84277;
19:16:34.784,-0.35742,0.42310,-0.84204;
19:16:34.794,-0.36011,0.43066,-0.84131;
19:16:34.804,-0.36694,0.42529,-0.84521;
19:16:34.814,-0.36548,0.42627,-0.83789;
19:16:34.824,-0.35864,0.43701,-0.83081;
19:16:34.834,-0.36548,0.42017,-0.83252;
19:16:34.844,-0.37427,0.39502,-0.84595;
19:16:34.854,-0.36377,0.42847,-0.84595;
19:16:34.864,-0.35571,0.43311,-0.83936;
19:16:34.874,-0.35693,0.42383,-0.83545;
19:16:34.884,-0.35986,0.41455,-0.83813;
19:16:34.894,-0.36133,0.41553,-0.83325;
19:16:34.904,-0.36475,0.42383,-0.83276;
19:16:34.914,-0.36597,0.42578,-0.84229;
19:16:34.924,-0.36475,0.41455,-0.84912;
19:16:34.934,-0.36328,0.40405,-0.85352;
19:16:34.944,-0.36377,0.40869,-0.84888;
19:16:34.954,-0.36328,0.41943,-0.84351;
19:16:34.964,-0.36499,0.41821,-0.84106;
19:16:34.974,-0.36719,0.42041,-0.83569;
19:16:34.984,-0.36572,0.42480,-0.82886;
19:16:34.994,-0.36743,0.42627,-0.83081;
19:16:35.004,-0.36646,0.42822,-0.83521;
19:16:35.014,-0.35913,0.42114,-0.83936;
19:16:35.024,-0.36182,0.41626,-0.83862;
19:16:35.034,-0.36279,0.42163,-0.84253;
19:16:35.044,-0.35864,0.42163,-0.85034;
19:16:35.054,-0.35693,0.41357,-0.85254;
19:16:35.064,-0.35327,0.40625,-0.85083;
19:16:35.074,-0.35742,0.40601,-0.84814;
19:16:35.084,-0.36108,0.40796,-0.84790;
19:16:35.094,-0.36548,0.40405,-0.84888;
19:16:35.104,-0.36548,0.41260,-0.84424;
19:16:35.114,-0.36401,0.43164,-0.83545;
19:16:35.124,-0.36182,0.44067,-0.83472;
19:16:35.134,-0.35840,0.43750,-0.83423;
19:16:35.144,-0.35962,0.42871,-0.83569;
19:16:35.154,-0.36353,0.41479,-0.83594;
19:16:35.164,-0.36841,0.40356,-0.83667;
19:16:35.174,-0.36914,0.40967,-0.83984;
19:16:35.184,-0.36816,0.42456,-0.83716;
19:16:35.194,-0.36401,0.42822,-0.83960;
19:16:35.204,-0.35791,0.42358,-0.84058;
19:16:35.214,-0.35742,0.42236,-0.83350;
19:16:35.224,-0.36426,0.41772,-0.83252;
19:16:35.234,-0.36792,0.41870,-0.83716;
19:16:35.244,-0.36719,0.42554,-0.83813;
19:16:35.254,-0.36694,0.42798,-0.83521;
19:16:35.264,-0.36450,0.42725,-0.83765;
19:16:35.274,-0.36255,0.41895,-0.84326;
19:16:35.284,-0.36060,0.40381,-0.84961;
19:16:35.294,-0.36084,0.39771,-0.85010;
19:16:35.304,-0.36328,0.39917,-0.85010;
19:16:35.314,-0.36279,0.40454,-0.85083;
19:16:35.324,-0.35962,0.42090,-0.84912;
19:16:35.334,-0.35815,0.43018,-0.84521;
19:16:35.344,-0.35913,0.42480,-0.84155;
19:16:35.354,-0.35938,0.41333,-0.84131;
19:16:35.364,-0.36279,0.40869,-0.84131;
19:16:35.374,-0.36499,0.41064,-0.84131;
19:16:35.384,-0.36548,0.42017,-0.84546;
19:16:35.394,-0.36279,0.42505,-0.84692;
19:16:35.404,-0.35791,0.42017,-0.84790;
19:16:35.414,-0.35767,0.40796,-0.85254;
19:16:35.424,-0.36279,0.40283,-0.84229;
19:16:35.434,-0.36694,0.41772,-0.83325;
19:16:35.444,-0.36548,0.42871,-0.83618;
19:16:35.454,-0.36523,0.42993,-0.83643;
19:16:35.464,-0.36816,0.42383,-0.83521;
19:16:35.474,-0.36719,0.41602,-0.83813;
19:16:35.484,-0.36694,0.41040,-0.83887;
19:16:35.494,-0.36865,0.41382,-0.83496;
19:16:35.504,-0.36890,0.42334,-0.83569;
19:16:35.514,-0.36768,0.43384,-0.83228;
19:16:35.524,-0.36792,0.43262,-0.83203;
19:16:35.534,-0.36719,0.42139,-0.83594;
19:16:35.544,-0.36694,0.42432,-0.82983;
19:16:35.554,-0.36914,0.42505,-0.82861;
19:16:35.564,-0.36646,0.42261,-0.83594;
19:16:35.574,-0.36694,0.42358,-0.84033;
19:16:35.584,-0.35986,0.42285,-0.84424;
19:16:35.594,-0.35669,0.41187,-0.84741;
19:16:35.604,-0.36157,0.40430,-0.84448;
19:16:35.614,-0.36304,0.40894,-0.84302;
19:16:35.624,-0.36499,0.41260,-0.84595;
19:16:35.634,-0.36743,0.41821,-0.84375;
19:16:35.644,-0.36572,0.42310,-0.83960;
19:16:35.654,-0.36719,0.42358,-0.83960;
19:16:35.664,-0.37085,0.42163,-0.83887;
19:16:35.674,-0.36841,0.42236,-0.84058;
19:16:35.684,-0.36719,0.41992,-0.83936;
19:16:35.694,-0.36646,0.42529,-0.83740;
19:16:35.704,-0.36597,0.42261,-0.84033;
19:16:35.714,-0.36401,0.41821,-0.84155;
19:16:35.724,-0.36328,0.42456,-0.83838;
19:16:35.734,-0.36426,0.41724,-0.83716;
19:16:35.744,-0.36548,0.41870,-0.83667;
19:16:35.754,-0.36841,0.42090,-0.83521;
19:16:35.764,-0.37036,0.42114,-0.83569;
19:16:35.774,-0.37134,0.42456,-0.83667;
19:16:35.784,-0.37109,0.42261,-0.83472;
19:16:35.794,-0.36987,0.42383,-0.83545;
19:16:35.804,-0.36792,0.42041,-0.83521;
19:16:35.814,-0.36719,0.42090,-0.83618;
19:16:35.824,-0.37036,0.42700,-0.83081;
19:16:35.834,-0.36938,0.43140,-0.82935;
19:16:35.844,-0.36792,0.42676,-0.83545;
19:16:35.854,-0.36890,0.41431,-0.83691;
19:16:35.864,-0.36768,0.41431,-0.84033;
19:16:35.874,-0.36304,0.42993,-0.84473;
19:16:35.884,-0.36084,0.42212,-0.83813;
19:16:35.894,-0.36694,0.41699,-0.84326;
19:16:35.904,-0.36987,0.41211,-0.83740;
19:16:35.914,-0.36841,0.42676,-0.84399;
19:16:35.924,-0.36621,0.42041,-0.83472;
19:16:35.934,-0.36963,0.41504,-0.83838;
19:16:35.944,-0.37036,0.42651,-0.83545;
19:16:35.954,-0.37012,0.42871,-0.83057;
19:16:35.964,-0.36938,0.42505,-0.83350;
19:16:35.974,-0.36841,0.42041,-0.83301;
19:16:35.984,-0.36816,0.41626,-0.83301;
19:16:35.994,-0.36865,0.41455,-0.83789;
19:16:36.004,-0.37061,0.41846,-0.83545;
19:16:36.014,-0.36865,0.42554,-0.83350;
19:16:36.024,-0.36719,0.43188,-0.83203;
19:16:36.034,-0.36938,0.43579,-0.83154;
19:16:36.044,-0.36621,0.43335,-0.83472;
19:16:36.054,-0.36401,0.42749,-0.83472;
19:16:36.064,-0.36475,0.41919,-0.83667;
19:16:36.074,-0.36475,0.41748,-0.84033;
19:16:36.084,-0.36621,0.41797,-0.84351;
19:16:36.094,-0.36646,0.41577,-0.84448;
19:16:36.104,-0.36646,0.41309,-0.84546;
19:16:36.114,-0.36816,0.41626,-0.84375;
19:16:36.124,-0.36865,0.41699,-0.84082;
19:16:36.134,-0.36987,0.41675,-0.84326;
19:16:36.144,-0.36914,0.42334,-0.83667;
19:16:36.154,-0.36914,0.42554,-0.83569;
19:16:36.164,-0.36768,0.42700,-0.83862;
19:16:36.174,-0.36426,0.42676,-0.83496;
19:16:36.184,-0.36279,0.42236,-0.83740;
19:16:36.194,-0.36548,0.42041,-0.83740;
19:16:36.204,-0.36792,0.42090,-0.83691;
19:16:36.214,-0.36841,0.42090,-0.83691;
19:16:36.224,-0.37134,0.41968,-0.83203;
19:16:36.234,-0.37256,0.41797,-0.83765;
19:16:36.244,-0.37354,0.41797,-0.83716;
19:16:36.254,-0.37231,0.42139,-0.83521;
19:16:36.264,-0.37012,0.42188,-0.83813;
19:16:36.274,-0.36938,0.42114,-0.83716;
19:16:36.284,-0.36865,0.42798,-0.83569;
19:16:36.294,-0.36743,0.42847,-0.83813;
19:16:36.304,-0.36621,0.42163,-0.83911;
19:16:36.314,-0.36694,0.41333,-0.83740;
19:16:36.324,-0.36646,0.41553,-0.83862;
19:16:36.334,-0.36987,0.42114,-0.83838;
19:16:36.344,-0.36865,0.42090,-0.84033;
19:16:36.354,-0.36646,0.42212,-0.83984;
19:16:36.364,-0.36597,0.41895,-0.84253;
19:16:36.374,-0.36646,0.41333,-0.84351;
19:16:36.384,-0.36694,0.41870,-0.83984;
19:16:36.394,-0.36328,0.42334,-0.84033;
19:16:36.404,-0.36206,0.42603,-0.84058;
19:16:36.414,-0.36426,0.42285,-0.84009;
19:16:36.424,-0.36719,0.41406,-0.83984;
19:16:36.434,-0.36743,0.41333,-0.84009;
19:16:36.444,-0.37354,0.41113,-0.84131;
19:16:36.454,-0.37500,0.41772,-0.84375;
19:16:36.464,-0.37256,0.42578,-0.83838;
19:16:36.474,-0.36816,0.42334,-0.83691;
19:16:36.484,-0.36450,0.42578,-0.83545;
19:16:36.494,-0.36450,0.42651,-0.83447;
19:16:36.504,-0.36279,0.42114,-0.83374;
19:16:36.514,-0.36621,0.41699,-0.83252;
19:16:36.524,-0.37061,0.41870,-0.83472;
19:16:36.534,-0.37134,0.41650,-0.83667;
19:16:36.544,-0.37207,0.41553,-0.83618;
19:16:36.554,-0.37207,0.42383,-0.83691;
19:16:36.564,-0.37109,0.42139,-0.83716;
19:16:36.574,-0.37012,0.41919,-0.83350;
19:16:36.584,-0.36938,0.42676,-0.83301;
19:16:36.594,-0.36694,0.43091,-0.83521;
19:16:36.604,-0.36475,0.43042,-0.83496;
19:16:36.614,-0.36133,0.42651,-0.83521;
19:16:36.624,-0.36157,0.42358,-0.83813;
19:16:36.634,-0.36499,0.41650,-0.84155;
19:16:36.644,-0.36401,0.40698,-0.84741;
19:16:36.654,-0.36670,0.41235,-0.84692;
19:16:36.664,-0.36792,0.42041,-0.84326;
19:16:36.674,-0.37085,0.41602,-0.84473;
19:16:36.684,-0.36963,0.41846,-0.84546;
19:16:36.694,-0.36523,0.42334,-0.83813;
19:16:36.704,-0.36377,0.42578,-0.83569;
19:16:36.714,-0.36182,0.42529,-0.83765;
19:16:36.724,-0.36133,0.41895,-0.83789;
19:16:36.734,-0.36230,0.42188,-0.83765;
19:16:36.744,-0.36353,0.42627,-0.84058;
19:16:36.754,-0.36401,0.42188,-0.84106;
19:16:36.764,-0.36353,0.41968,-0.83740;
19:16:36.774,-0.36475,0.41919,-0.83594;
19:16:36.784,-0.36768,0.41748,-0.83862;
19:16:36.794,-0.37134,0.41724,-0.83765;
19:16:36.804,-0.37329,0.42017,-0.83472;
19:16:36.814,-0.37061,0.41992,-0.83594;
19:16:36.824,-0.37085,0.41943,-0.83667;
19:16:36.834,-0.36914,0.41821,-0.83667;
19:16:36.844,-0.36621,0.41553,-0.84521;
19:16:36.854,-0.36328,0.41260,-0.85083;
19:16:36.864,-0.36108,0.40991,-0.84570;
19:16:36.874,-0.36182,0.41455,-0.84277;
19:16:36.884,-0.36084,0.41748,-0.84155;
19:16:36.894,-0.36377,0.41846,-0.84229;
19:16:36.904,-0.36768,0.41260,-0.84546;
19:16:36.914,-0.36816,0.41260,-0.85156;
19:16:36.924,-0.36426,0.41675,-0.85181;
19:16:36.934,-0.35913,0.42188,-0.85278;
19:16:36.944,-0.35986,0.42480,-0.85083;
19:16:36.954,-0.36133,0.42114,-0.84863;
19:16:36.964,-0.36279,0.41724,-0.85474;
19:16:36.974,-0.35986,0.41455,-0.85938;
19:16:36.984,-0.35693,0.41431,-0.85767;
19:16:36.994,-0.35474,0.41895,-0.85620;
19:16:37.004,-0.35620,0.43237,-0.85181;
19:16:37.014,-0.35815,0.43872,-0.84741;
19:16:37.024,-0.36743,0.43726,-0.83130;
19:16:37.034,-0.37817,0.42603,-0.81543;
19:16:37.044,-0.38428,0.44824,-0.80713;
19:16:37.054,-0.38403,0.44214,-0.78760;
19:16:37.064,-0.38721,0.43872,-0.79834;
19:16:37.074,-0.38892,0.44385,-0.82764;
19:16:37.084,-0.38110,0.44189,-0.83984;
19:16:37.094,-0.37549,0.42603,-0.85010;
19:16:37.104,-0.37744,0.41943,-0.85742;
19:16:37.114,-0.37183,0.41895,-0.86548;
19:16:37.124,-0.36108,0.41699,-0.86719;
19:16:37.134,-0.34741,0.42554,-0.86597;
19:16:37.144,-0.34033,0.43506,-0.86475;
19:16:37.154,-0.34033,0.43604,-0.86670;
19:16:37.164,-0.34106,0.43335,-0.86499;
19:16:37.174,-0.35132,0.42407,-0.85938;
19:16:37.184,-0.36572,0.41309,-0.86084;
19:16:37.194,-0.37256,0.41650,-0.85986;
19:16:37.204,-0.37866,0.42554,-0.84863;
19:16:37.214,-0.38208,0.42700,-0.84546;
19:16:37.224,-0.37866,0.42407,-0.84668;
19:16:37.234,-0.37744,0.43726,-0.82617;
19:16:37.244,-0.38013,0.45679,-0.80127;
19:16:37.254,-0.38501,0.46680,-0.79321;
19:16:37.264,-0.38843,0.46411,-0.77783;
19:16:37.274,-0.39771,0.45361,-0.76123;
19:16:37.284,-0.40356,0.44507,-0.76636;
19:16:37.294,-0.40601,0.44629,-0.77515;
19:16:37.304,-0.40405,0.45093,-0.78589;
19:16:37.314,-0.39233,0.45044,-0.79785;
19:16:37.324,-0.38525,0.45361,-0.80713;
19:16:37.334,-0.38135,0.45459,-0.80371;
19:16:37.344,-0.38135,0.45044,-0.80273;
19:16:37.354,-0.38086,0.44189,-0.80713;
19:16:37.364,-0.38354,0.43921,-0.80688;
19:16:37.374,-0.38721,0.44922,-0.79956;
19:16:37.384,-0.38745,0.45801,-0.79834;
19:16:37.394,-0.38574,0.46313,-0.80664;
19:16:37.404,-0.38208,0.46216,-0.80322;
19:16:37.414,-0.38452,0.45020,-0.81152;
19:16:37.424,-0.38599,0.43848,-0.82813;
19:16:37.434,-0.38623,0.43481,-0.82300;
19:16:37.444,-0.38550,0.43726,-0.81738;
19:16:37.454,-0.38306,0.44556,-0.82129;
19:16:37.464,-0.37915,0.45581,-0.81885;
19:16:37.474,-0.37939,0.45557,-0.81152;
19:16:37.484,-0.38232,0.44751,-0.81616;
19:16:37.494,-0.38257,0.44336,-0.82104;
19:16:37.504,-0.38550,0.44873,-0.81250;
19:16:37.514,-0.38770,0.44995,-0.81470;
19:16:37.524,-0.38794,0.44702,-0.82471;
19:16:37.534,-0.38428,0.44409,-0.83057;
19:16:37.544,-0.37891,0.44092,-0.82764;
19:16:37.554,-0.37817,0.42944,-0.82227;
19:16:37.564,-0.38086,0.42578,-0.82422;
19:16:37.574,-0.38379,0.43384,-0.82959;
19:16:37.584,-0.38086,0.43579,-0.83496;
19:16:37.594,-0.37915,0.43237,-0.83398;
19:16:37.604,-0.37988,0.43530,-0.82959;
19:16:37.614,-0.37671,0.44116,-0.82788;
19:16:37.624,-0.37354,0.44165,-0.82642;
19:16:37.634,-0.37646,0.43628,-0.82690;
19:16:37.644,-0.38257,0.43433,-0.82446;
19:16:37.654,-0.38428,0.43652,-0.82373;
19:16:37.664,-0.38501,0.43311,-0.82397;
19:16:37.674,-0.38428,0.43994,-0.82690;
19:16:37.684,-0.38110,0.44189,-0.82837;
19:16:37.694,-0.38184,0.43896,-0.82275;
19:16:37.704,-0.38428,0.43359,-0.81738;
19:16:37.714,-0.38672,0.42871,-0.82178;
19:16:37.724,-0.38550,0.43213,-0.82837;
19:16:37.734,-0.38257,0.43750,-0.82153;
19:16:37.744,-0.38135,0.44116,-0.82031;
19:16:37.754,-0.37671,0.44922,-0.81982;
19:16:37.764,-0.37695,0.45532,-0.81079;
19:16:37.774,-0.37891,0.45166,-0.81006;
19:16:37.784,-0.38086,0.44678,-0.81519;
19:16:37.794,-0.38599,0.43726,-0.82202;
19:16:37.804,-0.38599,0.43530,-0.82446;
19:16:37.814,-0.38550,0.43774,-0.82324;
19:16:37.824,-0.38257,0.43677,-0.83228;
19:16:37.834,-0.37622,0.43872,-0.83350;
19:16:37.844,-0.37549,0.43994,-0.82935;
19:16:37.854,-0.37646,0.44238,-0.82471;
19:16:37.864,-0.37769,0.44409,-0.81616;
19:16:37.874,-0.37988,0.44019,-0.82227;
19:16:37.884,-0.38184,0.44165,-0.82373;
19:16:37.894,-0.38086,0.44434,-0.82690;
19:16:37.904,-0.37744,0.44556,-0.83325;
19:16:37.914,-0.37769,0.44141,-0.83179;
19:16:37.924,-0.37622,0.43726,-0.83325;
19:16:37.934,-0.37744,0.43140,-0.82983;
19:16:37.944,-0.38477,0.42627,-0.82642;
19:16:37.954,-0.38550,0.43262,-0.82007;
19:16:37.964,-0.38745,0.43872,-0.81567;
19:16:37.974,-0.38574,0.44409,-0.81860;
19:16:37.984,-0.38379,0.44287,-0.81982;
19:16:37.994,-0.38257,0.44360,-0.81812;
19:16:38.004,-0.38110,0.44556,-0.81665;
19:16:38.014,-0.38159,0.44189,-0.82129;
19:16:38.024,-0.38086,0.43628,-0.82227;
19:16:38.034,-0.38208,0.42944,-0.82397;
19:16:38.044,-0.37988,0.43896,-0.82300;
19:16:38.054,-0.37939,0.43750,-0.82593;
19:16:38.064,-0.38184,0.43652,-0.82422;
19:16:38.074,-0.37915,0.44629,-0.82520;
19:16:38.084,-0.38037,0.43359,-0.82959;
19:16:38.094,-0.38062,0.43896,-0.82642;
19:16:38.104,-0.37988,0.44385,-0.81616;
19:16:38.114,-0.37988,0.44556,-0.82129;
19:16:38.124,-0.38110,0.44141,-0.82397;
19:16:38.134,-0.38184,0.43140,-0.82251;
19:16:38.144,-0.38428,0.43188,-0.82446;
19:16:38.154,-0.38306,0.44287,-0.82251;
19:16:38.164,-0.38159,0.44604,-0.82324;
19:16:38.174,-0.38037,0.44067,-0.82104;
19:16:38.184,-0.38184,0.43848,-0.82104;
19:16:38.194,-0.38306,0.43750,-0.81592;
19:16:38.204,-0.38403,0.44189,-0.81616;
19:16:38.214,-0.38574,0.44214,-0.82422;
19:16:38.224,-0.38379,0.43945,-0.82544;
19:16:38.234,-0.38208,0.44263,-0.82349;
19:16:38.244,-0.38135,0.44141,-0.82495;
19:16:38.254,-0.37842,0.44336,-0.82080;
19:16:38.264,-0.37720,0.44775,-0.81665;
19:16:38.274,-0.37939,0.44702,-0.82007;
19:16:38.284,-0.38013,0.44653,-0.82031;
19:16:38.294,-0.38110,0.44165,-0.81885;
19:16:38.304,-0.38452,0.43823,-0.81934;
19:16:38.314,-0.38501,0.43286,-0.82715;
19:16:38.324,-0.38428,0.43066,-0.82715;
19:16:38.334,-0.38403,0.44116,-0.82324;
19:16:38.344,-0.38110,0.44556,-0.82349;
19:16:38.354,-0.37915,0.45044,-0.82031;
19:16:38.364,-0.37964,0.45117,-0.81787;
19:16:38.374,-0.38184,0.44043,-0.82080;
19:16:38.384,-0.38281,0.43604,-0.82373;
19:16:38.394,-0.38428,0.43677,-0.82129;
19:16:38.404,-0.38428,0.44312,-0.81543;
19:16:38.414,-0.38232,0.45386,-0.81763;
19:16:38.424,-0.38281,0.44800,-0.82300;
19:16:38.434,-0.38330,0.43774,-0.82520;
19:16:38.444,-0.38477,0.43677,-0.82544;
19:16:38.454,-0.38574,0.43677,-0.82202;
19:16:38.464,-0.38208,0.44214,-0.81616;
19:16:38.474,-0.38013,0.44312,-0.81982;
19:16:38.484,-0.38208,0.44312,-0.81934;
19:16:38.494,-0.38354,0.44312,-0.82007;
19:16:38.504,-0.38330,0.44629,-0.82446;
19:16:38.514,-0.38086,0.44727,-0.81738;
19:16:38.524,-0.38208,0.44458,-0.81787;
19:16:38.534,-0.38428,0.44604,-0.82153;
19:16:38.544,-0.38403,0.44507,-0.82251;
19:16:38.554,-0.38257,0.44263,-0.82007;
19:16:38.564,-0.38428,0.43872,-0.82007;
19:16:38.574,-0.38525,0.43750,-0.82275;
19:16:38.584,-0.38525,0.43823,-0.82178;
19:16:38.594,-0.38501,0.43799,-0.82373;
19:16:38.604,-0.38257,0.44238,-0.82251;
19:16:38.614,-0.38306,0.44702,-0.81714;
19:16:38.624,-0.38281,0.44922,-0.81763;
19:16:38.634,-0.38208,0.44824,-0.81470;
19:16:38.644,-0.38208,0.44263,-0.81128;
19:16:38.654,-0.38525,0.44653,-0.81152;
19:16:38.664,-0.38843,0.44556,-0.81445;
19:16:38.674,-0.38940,0.43604,-0.81909;
19:16:38.684,-0.38916,0.43481,-0.82178;
19:16:38.694,-0.38721,0.43970,-0.81885;
19:16:38.704,-0.38550,0.44849,-0.81616;
19:16:38.714,-0.38330,0.44702,-0.81885;
19:16:38.724,-0.38135,0.44287,-0.81616;
19:16:38.734,-0.38403,0.44678,-0.81152;
19:16:38.744,-0.38745,0.44775,-0.81299;
19:16:38.754,-0.38745,0.44409,-0.81445;
19:16:38.764,-0.38599,0.44214,-0.81421;
19:16:38.774,-0.38379,0.44922,-0.81616;
19:16:38.784,-0.38159,0.45117,-0.81812;
19:16:38.794,-0.38208,0.44775,-0.81763;
19:16:38.804,-0.38354,0.44629,-0.81763;
19:16:38.814,-0.38184,0.44067,-0.82178;
19:16:38.824,-0.38281,0.43848,-0.82080;
19:16:38.834,-0.38428,0.44189,-0.81445;
19:16:38.844,-0.38525,0.44702,-0.81934;
19:16:38.854,-0.38501,0.45142,-0.82031;
19:16:38.864,-0.38477,0.44751,-0.81787;
19:16:38.874,-0.38403,0.44458,-0.81787;
19:16:38.884,-0.38354,0.44434,-0.81714;
19:16:38.894,-0.38354,0.44678,-0.82104;
19:16:38.904,-0.38062,0.44604,-0.82251;
19:16:38.914,-0.38232,0.44556,-0.82056;
19:16:38.924,-0.38379,0.44653,-0.81543;
19:16:38.934,-0.38330,0.43750,-0.81616;
19:16:38.944,-0.38647,0.42969,-0.82178;
19:16:38.954,-0.38867,0.43848,-0.81738;
19:16:38.964,-0.38892,0.44702,-0.81274;
19:16:38.974,-0.38843,0.44678,-0.81470;
19:16:38.984,-0.38477,0.45239,-0.81763;
19:16:38.994,-0.38281,0.44873,-0.81812;
19:16:39.004,-0.38330,0.44727,-0.81665;
19:16:39.014,-0.38208,0.44971,-0.81177;
19:16:39.024,-0.38086,0.44824,-0.81348;
19:16:39.034,-0.38159,0.44702,-0.81763;
19:16:39.044,-0.38184,0.44019,-0.81665;
19:16:39.054,-0.38281,0.43579,-0.82568;
19:16:39.064,-0.38501,0.43188,-0.82983;
19:16:39.074,-0.38647,0.43335,-0.82910;
19:16:39.084,-0.38525,0.44507,-0.82056;
19:16:39.094,-0.38330,0.45361,-0.81763;
19:16:39.104,-0.38232,0.45239,-0.81396;
19:16:39.114,-0.38257,0.44531,-0.80957;
19:16:39.124,-0.38452,0.44360,-0.81323;
19:16:39.134,-0.38599,0.44775,-0.81274;
19:16:39.144,-0.38574,0.45044,-0.81714;
19:16:39.154,-0.38354,0.44653,-0.81982;
19:16:39.164,-0.38208,0.44019,-0.82349;
19:16:39.174,-0.38281,0.43506,-0.82349;
19:16:39.184,-0.38623,0.43408,-0.82227;
19:16:39.194,-0.38867,0.43726,-0.82617;
19:16:39.204,-0.38623,0.43945,-0.82397;
19:16:39.214,-0.38452,0.44580,-0.81323;
19:16:39.224,-0.37988,0.45215,-0.81323;
19:16:39.234,-0.37695,0.44995,-0.81982;
19:16:39.244,-0.37891,0.44409,-0.82007;
19:16:39.254,-0.38403,0.44116,-0.82373;
19:16:39.264,-0.38330,0.43872,-0.82397;
19:16:39.274,-0.38525,0.44141,-0.82251;
19:16:39.284,-0.37939,0.44531,-0.81860;
19:16:39.294,-0.38135,0.44580,-0.81689;
19:16:39.304,-0.38428,0.44531,-0.82104;
19:16:39.314,-0.37939,0.44092,-0.82520;
19:16:39.324,-0.38501,0.42993,-0.83057;
19:16:39.334,-0.38696,0.43750,-0.82666;
19:16:39.344,-0.38525,0.44019,-0.81812;
19:16:39.354,-0.38354,0.44214,-0.82178;
19:16:39.364,-0.38110,0.44409,-0.82349;
19:16:39.374,-0.37866,0.44238,-0.82129;
19:16:39.384,-0.37891,0.44409,-0.82031;
19:16:39.394,-0.38110,0.44653,-0.82080;
19:16:39.404,-0.38232,0.44482,-0.82568;
19:16:39.414,-0.38037,0.44141,-0.82324;
19:16:39.424,-0.38330,0.43604,-0.82056;
19:16:39.434,-0.38306,0.43799,-0.81958;
19:16:39.444,-0.38330,0.43994,-0.82178;
19:16:39.454,-0.38501,0.44434,-0.81958;
19:16:39.464,-0.38232,0.45068,-0.81079;
19:16:39.474,-0.38281,0.44702,-0.81348;
19:16:39.484,-0.38306,0.44360,-0.81616;
19:16:39.494,-0.38525,0.43921,-0.82056;
19:16:39.504,-0.38647,0.43701,-0.82642;
19:16:39.514,-0.38501,0.43970,-0.82300;
19:16:39.524,-0.38208,0.44385,-0.82153;
19:16:39.534,-0.37964,0.44336,-0.82471;
19:16:39.544,-0.37939,0.43652,-0.82959;
19:16:39.554,-0.37939,0.43335,-0.82788;
19:16:39.564,-0.38037,0.44043,-0.81982;
19:16:39.574,-0.38306,0.44800,-0.81396;
19:16:39.584,-0.38306,0.44482,-0.81836;
19:16:39.594,-0.38428,0.43652,-0.82837;
19:16:39.604,-0.38403,0.43262,-0.82446;
19:16:39.614,-0.38135,0.43896,-0.82007;
19:16:39.624,-0.37988,0.44653,-0.82495;
19:16:39.634,-0.37964,0.44067,-0.82715;
19:16:39.644,-0.37964,0.43823,-0.82422;
19:16:39.654,-0.37915,0.44263,-0.81836;
19:16:39.664,-0.38208,0.44556,-0.81787;
19:16:39.674,-0.38330,0.44849,-0.81543;
19:16:39.684,-0.38379,0.44409,-0.82031;
19:16:39.694,-0.38599,0.43896,-0.82446;
19:16:39.704,-0.38550,0.43970,-0.82275;
19:16:39.714,-0.38257,0.44800,-0.82300;
19:16:39.724,-0.38062,0.44897,-0.82153;
19:16:39.734,-0.37964,0.44043,-0.82690;
19:16:39.744,-0.37939,0.43555,-0.82861;
19:16:39.754,-0.38159,0.43677,-0.82422;
19:16:39.764,-0.38281,0.44263,-0.82007;
19:16:39.774,-0.38184,0.44824,-0.81567;
19:16:39.784,-0.38403,0.44556,-0.81787;
19:16:39.794,-0.38647,0.44116,-0.82617;
19:16:39.804,-0.38501,0.44409,-0.82104;
19:16:39.814,-0.38696,0.44800,-0.81494;
19:16:39.824,-0.38745,0.44873,-0.81323;
19:16:39.834,-0.38525,0.44751,-0.81250;
19:16:39.844,-0.38232,0.43896,-0.81714;
19:16:39.854,-0.38013,0.43042,-0.82007;
19:16:39.864,-0.38086,0.43970,-0.82446;
19:16:39.874,-0.38110,0.44580,-0.82739;
19:16:39.884,-0.38013,0.44214,-0.82739;
19:16:39.894,-0.37964,0.44092,-0.82666;
19:16:39.904,-0.38208,0.44189,-0.82300;
19:16:39.914,-0.38721,0.44067,-0.82227;
19:16:39.924,-0.38916,0.43896,-0.82544;
19:16:39.934,-0.38867,0.44678,-0.82153;
19:16:39.944,-0.38647,0.45044,-0.81787;
19:16:39.954,-0.38525,0.44385,-0.82227;
19:16:39.964,-0.38208,0.44189,-0.82837;
19:16:39.974,-0.38257,0.43945,-0.83325;
19:16:39.984,-0.38208,0.44141,-0.82178;
19:16:39.994,-0.37891,0.44751,-0.80835;
19:16:40.004,-0.38281,0.44360,-0.82056;
19:16:40.014,-0.38574,0.43359,-0.83276;
19:16:40.024,-0.39087,0.43530,-0.82983;
19:16:40.034,-0.38989,0.44189,-0.83081;
19:16:40.044,-0.38672,0.44873,-0.83057;
19:16:40.054,-0.38647,0.45117,-0.82397;
19:16:40.064,-0.38037,0.45215,-0.81665;
19:16:40.074,-0.37842,0.46143,-0.80225;
19:16:40.084,-0.37598,0.46997,-0.80127;
19:16:40.094,-0.37744,0.46167,-0.80591;
19:16:40.104,-0.38818,0.44849,-0.81177;
19:16:40.114,-0.39136,0.44604,-0.81543;
19:16:40.124,-0.39575,0.43823,-0.81104;
19:16:40.134,-0.39575,0.43774,-0.80225;
19:16:40.144,-0.39771,0.44800,-0.79590;
19:16:40.154,-0.39941,0.45117,-0.79810;
19:16:40.164,-0.39673,0.45117,-0.78467;
19:16:40.174,-0.39893,0.45068,-0.78931;
19:16:40.184,-0.39844,0.45410,-0.80103;
19:16:40.194,-0.39795,0.45874,-0.79346;
19:16:40.204,-0.39478,0.46411,-0.79053;
19:16:40.214,-0.39478,0.46436,-0.79004;
19:16:40.224,-0.39746,0.45776,-0.80225;
19:16:40.234,-0.39453,0.45679,-0.80615;
19:16:40.244,-0.39258,0.45288,-0.80713;
19:16:40.254,-0.39624,0.44946,-0.80273;
19:16:40.264,-0.39575,0.46021,-0.79541;
19:16:40.274,-0.39575,0.46802,-0.80298;
19:16:40.284,-0.39478,0.46387,-0.81055;
19:16:40.294,-0.38867,0.45605,-0.80835;
19:16:40.304,-0.38623,0.45508,-0.80933;
19:16:40.314,-0.38281,0.46313,-0.81812;
19:16:40.324,-0.38110,0.46655,-0.82153;
19:16:40.334,-0.38330,0.46509,-0.81787;
19:16:40.344,-0.38818,0.45874,-0.81055;
19:16:40.354,-0.39331,0.45752,-0.80103;
19:16:40.364,-0.39307,0.45410,-0.79810;
19:16:40.374,-0.39282,0.44751,-0.81372;
19:16:40.384,-0.39404,0.45190,-0.81372;
19:16:40.394,-0.39380,0.45825,-0.80396;
19:16:40.404,-0.39258,0.46069,-0.79785;
19:16:40.414,-0.39258,0.45825,-0.80444;
19:16:40.424,-0.39014,0.45508,-0.81006;
19:16:40.434,-0.39209,0.45459,-0.80200;
19:16:40.444,-0.39282,0.45923,-0.79858;
19:16:40.454,-0.39990,0.44629,-0.79858;
19:16:40.464,-0.39575,0.44751,-0.81006;
19:16:40.474,-0.38892,0.45996,-0.80200;
19:16:40.484,-0.38135,0.45190,-0.81470;
19:16:40.494,-0.38379,0.45020,-0.81982;
19:16:40.504,-0.38745,0.46362,-0.80493;
19:16:40.514,-0.39355,0.44971,-0.80444;
19:16:40.524,-0.39673,0.44580,-0.80737;
19:16:40.534,-0.39966,0.44287,-0.81763;
19:16:40.544,-0.39404,0.44482,-0.82544;
19:16:40.554,-0.39111,0.45020,-0.82397;
19:16:40.564,-0.38550,0.45532,-0.82056;
19:16:40.574,-0.38086,0.45435,-0.81396;
19:16:40.584,-0.38281,0.44995,-0.81104;
19:16:40.594,-0.38477,0.45239,-0.80469;
19:16:40.604,-0.38916,0.45972,-0.79517;
19:16:40.614,-0.39136,0.45874,-0.79810;
19:16:40.624,-0.39233,0.45679,-0.80591;
19:16:40.634,-0.38965,0.45337,-0.80640;
19:16:40.644,-0.38818,0.44580,-0.81055;
19:16:40.654,-0.38989,0.44409,-0.81421;
19:16:40.664,-0.38916,0.44507,-0.81030;
19:16:40.674,-0.39111,0.44556,-0.80835;
19:16:40.684,-0.39136,0.45117,-0.80542;
19:16:40.694,-0.39355,0.45459,-0.80469;
19:16:40.704,-0.38940,0.45728,-0.80225;
19:16:40.714,-0.38672,0.46069,-0.80420;
19:16:40.724,-0.38696,0.46021,-0.81152;
19:16:40.734,-0.38599,0.45776,-0.80981;
19:16:40.744,-0.38599,0.45459,-0.81030;
19:16:40.754,-0.38135,0.45337,-0.81274;
19:16:40.764,-0.38306,0.44922,-0.81787;
19:16:40.774,-0.38477,0.44385,-0.82202;
19:16:40.784,-0.38550,0.44189,-0.81616;
19:16:40.794,-0.38574,0.44434,-0.82031;
19:16:40.804,-0.38501,0.44116,-0.82715;
19:16:40.814,-0.38330,0.44067,-0.82690;
19:16:40.824,-0.38062,0.44971,-0.81836;
19:16:40.834,-0.37964,0.45972,-0.81738;
19:16:40.844,-0.37744,0.46045,-0.81226;
19:16:40.854,-0.37964,0.45142,-0.81006;
19:16:40.864,-0.38110,0.44189,-0.81470;
19:16:40.874,-0.38184,0.43384,-0.81348;
19:16:40.884,-0.38550,0.43994,-0.80884;
19:16:40.894,-0.38940,0.44922,-0.80908;
19:16:40.904,-0.38843,0.45093,-0.80981;
19:16:40.914,-0.38428,0.44897,-0.79395;
19:16:40.924,-0.38599,0.43994,-0.80542;
19:16:40.934,-0.38599,0.43311,-0.82642;
19:16:40.944,-0.38501,0.42676,-0.82446;
19:16:40.954,-0.38354,0.42578,-0.82544;
19:16:40.964,-0.38062,0.42725,-0.83252;
19:16:40.974,-0.37695,0.42065,-0.85156;
19:16:40.984,-0.37085,0.41675,-0.86011;
19:16:40.994,-0.36426,0.42065,-0.84888;
19:16:41.004,-0.36133,0.42944,-0.84497;
19:16:41.014,-0.36011,0.44092,-0.84229;
19:16:41.024,-0.35815,0.44019,-0.83765;
19:16:41.034,-0.36353,0.43262,-0.82446;
19:16:41.044,-0.36987,0.43164,-0.81104;
19:16:41.054,-0.38062,0.43018,-0.82715;
19:16:41.064,-0.38452,0.43018,-0.83618;
19:16:41.074,-0.38379,0.43384,-0.82813;
19:16:41.084,-0.38257,0.42798,-0.83618;
19:16:41.094,-0.37769,0.41479,-0.85254;
19:16:41.104,-0.37354,0.41089,-0.86035;
19:16:41.114,-0.36597,0.41040,-0.85718;
19:16:41.124,-0.36279,0.40942,-0.85889;
19:16:41.134,-0.36157,0.41553,-0.85864;
19:16:41.144,-0.36084,0.42334,-0.84692;
19:16:41.154,-0.36304,0.42847,-0.83789;
19:16:41.164,-0.36279,0.43530,-0.83252;
19:16:41.174,-0.36597,0.43994,-0.83032;
19:16:41.184,-0.36963,0.43091,-0.83496;
19:16:41.194,-0.37231,0.41943,-0.83691;
19:16:41.204,-0.37622,0.42139,-0.84106;
19:16:41.214,-0.37622,0.41821,-0.84302;
19:16:41.224,-0.37720,0.41528,-0.83496;
19:16:41.234,-0.37817,0.42554,-0.82349;
19:16:41.244,-0.37891,0.43896,-0.81470;
19:16:41.254,-0.37744,0.43945,-0.80737;
19:16:41.264,-0.36499,0.42114,-0.83472;
19:16:41.274,-0.37354,0.41943,-0.83081;
19:16:41.284,-0.37598,0.42529,-0.83057;
19:16:41.294,-0.37671,0.43530,-0.83252;
19:16:41.304,-0.37915,0.43677,-0.83521;
19:16:41.314,-0.37573,0.43115,-0.83862;
19:16:41.324,-0.37793,0.42798,-0.83179;
19:16:41.334,-0.37866,0.43164,-0.82861;
19:16:41.344,-0.37524,0.43604,-0.82935;
19:16:41.354,-0.37451,0.43604,-0.82446;
19:16:41.364,-0.37524,0.43359,-0.82617;
19:16:41.374,-0.37622,0.43213,-0.82983;
19:16:41.384,-0.37598,0.42969,-0.83569;
19:16:41.394,-0.37549,0.42969,-0.83594;
19:16:41.404,-0.37329,0.43018,-0.83569;
19:16:41.414,-0.37329,0.42651,-0.83984;
19:16:41.424,-0.37183,0.42529,-0.83521;
19:16:41.434,-0.37451,0.42358,-0.83228;
19:16:41.444,-0.37915,0.43091,-0.82690;
19:16:41.454,-0.37891,0.43970,-0.82251;
19:16:41.464,-0.37988,0.44360,-0.82153;
19:16:41.474,-0.37769,0.44580,-0.82178;
19:16:41.484,-0.37891,0.44043,-0.82178;
19:16:41.494,-0.38232,0.43555,-0.82593;
19:16:41.504,-0.38379,0.42969,-0.82861;
19:16:41.514,-0.37964,0.44653,-0.82593;
19:16:41.524,-0.37158,0.43530,-0.82153;
19:16:41.534,-0.38306,0.44189,-0.81738;
19:16:41.544,-0.38403,0.44482,-0.82520;
19:16:41.554,-0.38354,0.43628,-0.82910;
19:16:41.564,-0.38110,0.43433,-0.83032;
19:16:41.574,-0.38208,0.43994,-0.82446;
19:16:41.584,-0.38208,0.44116,-0.82129;
19:16:41.594,-0.38184,0.44043,-0.81787;
19:16:41.604,-0.38184,0.44141,-0.81543;
19:16:41.614,-0.38135,0.44531,-0.81738;
19:16:41.624,-0.38135,0.44263,-0.82104;
19:16:41.634,-0.38403,0.44067,-0.82300;
19:16:41.644,-0.38721,0.44067,-0.82813;
19:16:41.654,-0.38550,0.44312,-0.82568;
19:16:41.664,-0.38623,0.44312,-0.82007;
19:16:41.674,-0.38501,0.44385,-0.81177;
19:16:41.684,-0.38452,0.44580,-0.80737;
19:16:41.694,-0.38525,0.44824,-0.81177;
19:16:41.704,-0.38428,0.44946,-0.81006;
19:16:41.714,-0.38208,0.44482,-0.81689;
19:16:41.724,-0.38525,0.44434,-0.81885;
19:16:41.734,-0.38892,0.44043,-0.81934;
19:16:41.744,-0.38818,0.44312,-0.82129;
19:16:41.754,-0.38647,0.44922,-0.81128;
19:16:41.764,-0.38354,0.45215,-0.80615;
19:16:41.774,-0.38135,0.45215,-0.80933;
19:16:41.784,-0.38135,0.44751,-0.81421;
19:16:41.794,-0.38525,0.44189,-0.81519;
19:16:41.804,-0.38696,0.43945,-0.81689;
19:16:41.814,-0.38965,0.44067,-0.81689;
19:16:41.824,-0.39185,0.43750,-0.82129;
19:16:41.834,-0.38867,0.44385,-0.82007;
19:16:41.844,-0.38647,0.45117,-0.81152;
19:16:41.854,-0.38525,0.45239,-0.80933;
19:16:41.864,-0.38452,0.44702,-0.81567;
19:16:41.874,-0.38477,0.44165,-0.81543;
19:16:41.884,-0.38599,0.44092,-0.81665;
19:16:41.894,-0.38428,0.44141,-0.82275;
19:16:41.904,-0.38477,0.44360,-0.82153;
19:16:41.914,-0.38599,0.44458,-0.82178;
19:16:41.924,-0.38550,0.44678,-0.82324;
19:16:41.934,-0.38623,0.44360,-0.81909;
19:16:41.944,-0.38672,0.43750,-0.81787;
19:16:41.954,-0.39038,0.43262,-0.81665;
19:16:41.964,-0.39111,0.44116,-0.81348;
19:16:41.974,-0.38672,0.44946,-0.81787;
19:16:41.984,-0.38477,0.44849,-0.82031;
19:16:41.994,-0.38281,0.44824,-0.81982;
19:16:42.004,-0.38062,0.44604,-0.82056;
19:16:42.014,-0.38135,0.44580,-0.81860;
19:16:42.024,-0.38184,0.44604,-0.81421;
19:16:42.034,-0.38379,0.44092,-0.81665;
19:16:42.044,-0.38574,0.43604,-0.82300;
19:16:42.054,-0.39063,0.43408,-0.82104;
19:16:42.064,-0.39185,0.43994,-0.81738;
19:16:42.074,-0.38940,0.44849,-0.81274;
19:16:42.084,-0.38745,0.45215,-0.81104;
19:16:42.094,-0.38574,0.45215,-0.81201;
19:16:42.104,-0.38477,0.44727,-0.80981;
19:16:42.114,-0.38403,0.44727,-0.81079;
19:16:42.124,-0.38599,0.44678,-0.81348;
19:16:42.134,-0.38452,0.44629,-0.81714;
19:16:42.144,-0.38525,0.44580,-0.81860;
19:16:42.154,-0.38574,0.44067,-0.81885;
19:16:42.164,-0.38574,0.43896,-0.82397;
19:16:42.174,-0.38818,0.43799,-0.82300;
19:16:42.184,-0.38916,0.44165,-0.82031;
19:16:42.194,-0.38818,0.44702,-0.81543;
19:16:42.204,-0.38477,0.44873,-0.81519;
19:16:42.214,-0.38208,0.44873,-0.81812;
19:16:42.224,-0.38135,0.44507,-0.81396;
19:16:42.234,-0.38379,0.44360,-0.81714;
19:16:42.244,-0.38745,0.44312,-0.81982;
19:16:42.254,-0.38770,0.44360,-0.82056;
19:16:42.264,-0.38721,0.44263,-0.81982;
19:16:42.274,-0.38696,0.44189,-0.82007;
19:16:42.284,-0.38550,0.44385,-0.81982;
19:16:42.294,-0.38452,0.44287,-0.81812;
19:16:42.304,-0.38550,0.44385,-0.81982;
19:16:42.314,-0.38501,0.44653,-0.81885;
19:16:42.324,-0.38306,0.44897,-0.81567;
19:16:42.334,-0.38257,0.45166,-0.81128;
19:16:42.344,-0.38525,0.45239,-0.80908;
19:16:42.354,-0.38550,0.44995,-0.81787;
19:16:42.364,-0.38574,0.44507,-0.81567;
19:16:42.374,-0.38892,0.44189,-0.81274;
19:16:42.384,-0.38965,0.43896,-0.82275;
19:16:42.394,-0.38940,0.43677,-0.82471;
19:16:42.404,-0.38916,0.44214,-0.81396;
19:16:42.414,-0.38916,0.44604,-0.81616;
19:16:42.424,-0.38745,0.44775,-0.81836;
19:16:42.434,-0.38525,0.44824,-0.81177;
19:16:42.444,-0.38281,0.44702,-0.81079;
19:16:42.454,-0.38379,0.45483,-0.80981;
19:16:42.464,-0.38428,0.45459,-0.81323;
19:16:42.474,-0.38623,0.44849,-0.81470;
19:16:42.484,-0.38770,0.44360,-0.81665;
19:16:42.494,-0.38867,0.43921,-0.81885;
19:16:42.504,-0.38867,0.43848,-0.81934;
19:16:42.514,-0.38745,0.44092,-0.81763;
19:16:42.524,-0.38721,0.44629,-0.81641;
19:16:42.534,-0.38647,0.45020,-0.81299;
19:16:42.544,-0.38721,0.44995,-0.81323;
19:16:42.554,-0.38623,0.44800,-0.81274;
19:16:42.564,-0.38525,0.44653,-0.81592;
19:16:42.574,-0.38501,0.44727,-0.81787;
19:16:42.584,-0.38452,0.44775,-0.81592;
19:16:42.594,-0.38623,0.44629,-0.81665;
19:16:42.604,-0.38696,0.44702,-0.81592;
19:16:42.614,-0.38550,0.45068,-0.81934;
19:16:42.624,-0.38501,0.44336,-0.81787;
19:16:42.634,-0.38721,0.44897,-0.81299;
19:16:42.644,-0.38940,0.44653,-0.81519;
19:16:42.654,-0.38892,0.44629,-0.81152;
19:16:42.664,-0.38721,0.45044,-0.81128;
19:16:42.674,-0.38623,0.44946,-0.81299;
19:16:42.684,-0.38501,0.44800,-0.81250;
19:16:42.694,-0.38599,0.44263,-0.81201;
19:16:42.704,-0.38696,0.44336,-0.81299;
19:16:42.714,-0.38916,0.44385,-0.81812;
19:16:42.724,-0.39087,0.44458,-0.81616;
19:16:42.734,-0.39087,0.44312,-0.81201;
19:16:42.744,-0.38916,0.44604,-0.80884;
19:16:42.754,-0.38818,0.44531,-0.81006;
19:16:42.764,-0.38794,0.44263,-0.81567;
19:16:42.774,-0.38647,0.44653,-0.81836;
19:16:42.784,-0.38525,0.44678,-0.81958;
19:16:42.794,-0.38647,0.44849,-0.81421;
19:16:42.804,-0.38843,0.44287,-0.81152;
19:16:42.814,-0.38696,0.44702,-0.81860;
19:16:42.824,-0.38525,0.44702,-0.81470;
19:16:42.834,-0.38428,0.45044,-0.81665;
19:16:42.844,-0.38501,0.44922,-0.81836;
19:16:42.854,-0.38794,0.44287,-0.81592;
19:16:42.864,-0.38940,0.44092,-0.81567;
19:16:42.874,-0.38770,0.44604,-0.81348;
19:16:42.884,-0.39014,0.44653,-0.81445;
19:16:42.894,-0.38867,0.44727,-0.81372;
19:16:42.904,-0.38770,0.44824,-0.81519;
19:16:42.914,-0.38574,0.44604,-0.82178;
19:16:42.924,-0.38452,0.44360,-0.82227;
19:16:42.934,-0.38550,0.43970,-0.81860;
19:16:42.944,-0.38770,0.44727,-0.81396;
19:16:42.954,-0.38818,0.45093,-0.81006;
19:16:42.964,-0.38818,0.45215,-0.80322;
19:16:42.974,-0.38965,0.45288,-0.80420;
19:16:42.984,-0.39014,0.44873,-0.80713;
19:16:42.994,-0.39014,0.44531,-0.80884;
19:16:43.004,-0.38940,0.43823,-0.81567;
19:16:43.014,-0.38867,0.43750,-0.82373;
19:16:43.024,-0.38794,0.44409,-0.82446;
19:16:43.034,-0.38574,0.44897,-0.82056;
19:16:43.044,-0.38281,0.44849,-0.82031;
19:16:43.054,-0.38379,0.44507,-0.81836;
19:16:43.064,-0.38647,0.44507,-0.81348;
19:16:43.074,-0.38745,0.44873,-0.81372;
19:16:43.084,-0.38550,0.45288,-0.81421;
19:16:43.094,-0.38354,0.45215,-0.81714;
19:16:43.104,-0.38281,0.44824,-0.81909;
19:16:43.114,-0.38452,0.44287,-0.81714;
19:16:43.124,-0.38696,0.43823,-0.81958;
19:16:43.134,-0.39014,0.43970,-0.82178;
19:16:43.144,-0.38892,0.44556,-0.81543;
19:16:43.154,-0.38672,0.44775,-0.81323;
19:16:43.164,-0.38721,0.44336,-0.81494;
19:16:43.174,-0.38672,0.44800,-0.80957;
19:16:43.184,-0.38794,0.45142,-0.80664;
19:16:43.194,-0.38818,0.44580,-0.81250;
19:16:43.204,-0.38818,0.44336,-0.81689;
19:16:43.214,-0.38770,0.44751,-0.81592;
19:16:43.224,-0.38550,0.45239,-0.81641;
19:16:43.234,-0.38477,0.45190,-0.81665;
19:16:43.244,-0.38525,0.44604,-0.81592;
19:16:43.254,-0.38574,0.44189,-0.81860;
19:16:43.264,-0.38916,0.43896,-0.81812;
19:16:43.274,-0.39038,0.43799,-0.81787;
19:16:43.284,-0.38916,0.44458,-0.81592;
19:16:43.294,-0.38818,0.45142,-0.81445;
19:16:43.304,-0.38477,0.45410,-0.81372;
19:16:43.314,-0.38525,0.45142,-0.81226;
19:16:43.324,-0.38379,0.44873,-0.81787;
19:16:43.334,-0.38354,0.44604,-0.81567;
19:16:43.344,-0.38647,0.44580,-0.81567;
19:16:43.354,-0.38672,0.44873,-0.81543;
19:16:43.364,-0.38574,0.44482,-0.81616;
19:16:43.374,-0.38770,0.44482,-0.81738;
19:16:43.384,-0.38867,0.44336,-0.81689;
19:16:43.394,-0.38843,0.44263,-0.81519;
19:16:43.404,-0.38794,0.44946,-0.81128;
19:16:43.414,-0.38574,0.45337,-0.81201;
19:16:43.424,-0.38501,0.45020,-0.81519;
19:16:43.434,-0.38452,0.44263,-0.81714;
19:16:43.444,-0.38672,0.44116,-0.81885;
19:16:43.454,-0.38696,0.44775,-0.81982;
19:16:43.464,-0.38623,0.44678,-0.81714;
19:16:43.474,-0.38745,0.44214,-0.82104;
19:16:43.484,-0.38599,0.44482,-0.81641;
19:16:43.494,-0.38550,0.44971,-0.81323;
19:16:43.504,-0.38403,0.45337,-0.81689;
19:16:43.514,-0.38257,0.44971,-0.81250;
19:16:43.524,-0.38599,0.44482,-0.81006;
19:16:43.534,-0.38940,0.44238,-0.81592;
19:16:43.544,-0.39014,0.44214,-0.81885;
19:16:43.554,-0.38843,0.44629,-0.81592;
19:16:43.564,-0.38477,0.45093,-0.81567;
19:16:43.574,-0.38232,0.44922,-0.81665;
19:16:43.584,-0.38232,0.44336,-0.81787;
19:16:43.594,-0.38452,0.43774,-0.81958;
19:16:43.604,-0.38599,0.44067,-0.81665;
19:16:43.614,-0.38721,0.44312,-0.81689;
19:16:43.624,-0.38696,0.44263,-0.81982;
19:16:43.634,-0.38647,0.44458,-0.81616;
19:16:43.644,-0.38770,0.44531,-0.81104;
19:16:43.654,-0.38745,0.44775,-0.81152;
19:16:43.664,-0.38574,0.44800,-0.81519;
19:16:43.674,-0.38550,0.44434,-0.81641;
19:16:43.684,-0.38550,0.44189,-0.81812;
19:16:43.694,-0.38452,0.44116,-0.82373;
19:16:43.704,-0.38428,0.44238,-0.81738;
19:16:43.714,-0.38501,0.44165,-0.81543;
19:16:43.724,-0.38525,0.44580,-0.81470;
19:16:43.734,-0.38672,0.45117,-0.80957;
19:16:43.744,-0.38916,0.44507,-0.81177;
19:16:43.754,-0.38916,0.44189,-0.81421;
19:16:43.764,-0.39233,0.44214,-0.81372;
19:16:43.774,-0.38940,0.44824,-0.81665;
19:16:43.784,-0.38501,0.45703,-0.81274;
19:16:43.794,-0.38403,0.44971,-0.81543;
19:16:43.804,-0.38110,0.44678,-0.82007;
19:16:43.814,-0.37939,0.44604,-0.81763;
19:16:43.824,-0.38110,0.44141,-0.82178;
19:16:43.834,-0.38110,0.44019,-0.82251;
19:16:43.844,-0.38135,0.44116,-0.82153;
19:16:43.854,-0.38208,0.44995,-0.81860;
19:16:43.864,-0.38330,0.45190,-0.81860;
19:16:43.874,-0.38477,0.45142,-0.81226;
19:16:43.884,-0.38770,0.44873,-0.80811;
19:16:43.894,-0.38867,0.44678,-0.81323;
19:16:43.904,-0.38794,0.44385,-0.81567;
19:16:43.914,-0.38940,0.43726,-0.82031;
19:16:43.924,-0.38867,0.44067,-0.81836;
19:16:43.934,-0.38721,0.44727,-0.81665;
19:16:43.944,-0.38232,0.44653,-0.81934;
19:16:43.954,-0.38281,0.44263,-0.81421;
19:16:43.964,-0.38550,0.44385,-0.81348;
19:16:43.974,-0.38647,0.44312,-0.81738;
19:16:43.984,-0.38770,0.44287,-0.81665;
19:16:43.994,-0.38525,0.44360,-0.81470;
19:16:44.004,-0.38208,0.44507,-0.82104;
19:16:44.014,-0.38232,0.44531,-0.82397;
19:16:44.024,-0.38403,0.44263,-0.82227;
19:16:44.034,-0.38306,0.44116,-0.82251;
19:16:44.044,-0.38403,0.44116,-0.82104;
19:16:44.054,-0.38501,0.44434,-0.81494;
19:16:44.064,-0.38257,0.44653,-0.81787;
19:16:44.074,-0.38623,0.44141,-0.82373;
19:16:44.084,-0.38794,0.44116,-0.82446;
19:16:44.094,-0.38550,0.44482,-0.82397;
19:16:44.104,-0.37817,0.44849,-0.81787;
19:16:44.114,-0.38550,0.43408,-0.82446;
19:16:44.124,-0.38599,0.44043,-0.82275;
19:16:44.134,-0.38525,0.44678,-0.81201;
19:16:44.144,-0.38477,0.44824,-0.81372;
19:16:44.154,-0.38623,0.44946,-0.81543;
19:16:44.164,-0.38721,0.44312,-0.81958;
19:16:44.174,-0.38428,0.44043,-0.82129;
19:16:44.184,-0.38330,0.43896,-0.82056;
19:16:44.194,-0.38525,0.43921,-0.82520;
19:16:44.204,-0.38159,0.44067,-0.82324;
19:16:44.214,-0.38037,0.44141,-0.82007;
19:16:44.224,-0.38281,0.44775,-0.81763;
19:16:44.234,-0.38574,0.44873,-0.81787;
19:16:44.244,-0.38599,0.44189,-0.81714;
19:16:44.254,-0.38794,0.43921,-0.81982;
19:16:44.264,-0.38843,0.43677,-0.82349;
19:16:44.274,-0.38843,0.44116,-0.81787;
19:16:44.284,-0.38550,0.44653,-0.81641;
19:16:44.294,-0.38354,0.44995,-0.81714;
19:16:44.304,-0.38306,0.44849,-0.81396;
19:16:44.314,-0.38330,0.44092,-0.81470;
19:16:44.324,-0.38745,0.44092,-0.81592;
19:16:44.334,-0.38745,0.44653,-0.81641;
19:16:44.344,-0.38794,0.44043,-0.81860;
19:16:44.354,-0.38574,0.43774,-0.81812;
19:16:44.364,-0.38550,0.44141,-0.82056;
19:16:44.374,-0.38501,0.44287,-0.82251;
19:16:44.384,-0.38403,0.44629,-0.81958;
19:16:44.394,-0.38257,0.45044,-0.82007;
19:16:44.404,-0.38184,0.44922,-0.81738;
19:16:44.414,-0.38159,0.44629,-0.81152;
19:16:44.424,-0.38257,0.44556,-0.81152;
19:16:44.434,-0.38696,0.44116,-0.81763;
19:16:44.444,-0.38818,0.44067,-0.82178;
19:16:44.454,-0.38794,0.44141,-0.81909;
19:16:44.464,-0.38818,0.44165,-0.81958;
19:16:44.474,-0.38696,0.44727,-0.81860;
19:16:44.484,-0.38477,0.45044,-0.81177;
19:16:44.494,-0.38550,0.44971,-0.80957;
19:16:44.504,-0.38672,0.44507,-0.80957;
19:16:44.514,-0.38647,0.43823,-0.80981;
19:16:44.524,-0.38452,0.44360,-0.81299;
19:16:44.534,-0.38477,0.44409,-0.81812;
19:16:44.544,-0.38379,0.44434,-0.81885;
19:16:44.554,-0.38428,0.44482,-0.81592;
19:16:44.564,-0.38623,0.44312,-0.82227;
19:16:44.574,-0.38647,0.44165,-0.82104;
19:16:44.584,-0.38818,0.44067,-0.81641;
19:16:44.594,-0.39087,0.44116,-0.81665;
19:16:44.604,-0.38916,0.44214,-0.81787;
19:16:44.614,-0.38696,0.44116,-0.82227;
19:16:44.624,-0.38428,0.44238,-0.82080;
19:16:44.634,-0.38086,0.44727,-0.82227;
19:16:44.644,-0.37817,0.44678,-0.82886;
19:16:44.654,-0.37695,0.44385,-0.82471;
19:16:44.664,-0.38062,0.43970,-0.82153;
19:16:44.674,-0.38354,0.43896,-0.82715;
19:16:44.684,-0.38721,0.43896,-0.82153;
19:16:44.694,-0.38721,0.44507,-0.81885;
19:16:44.704,-0.38721,0.44702,-0.81836;
19:16:44.714,-0.38623,0.44360,-0.82129;
19:16:44.724,-0.38623,0.44019,-0.81958;
19:16:44.734,-0.38818,0.43945,-0.81445;
19:16:44.744,-0.38647,0.44385,-0.81787;
19:16:44.754,-0.38599,0.44238,-0.82080;
19:16:44.764,-0.38525,0.43848,-0.81909;
19:16:44.774,-0.38452,0.44189,-0.81519;
19:16:44.784,-0.38403,0.44360,-0.81567;
19:16:44.794,-0.38647,0.43750,-0.81567;
19:16:44.804,-0.38818,0.43921,-0.82031;
19:16:44.814,-0.38745,0.44849,-0.81396;
19:16:44.824,-0.38550,0.45215,-0.81104;
19:16:44.834,-0.38403,0.44971,-0.81152;
19:16:44.844,-0.38428,0.44287,-0.80981;
19:16:44.854,-0.38599,0.43579,-0.82129;
19:16:44.864,-0.38647,0.43726,-0.82031;
19:16:44.874,-0.38672,0.43823,-0.81860;
19:16:44.884,-0.38550,0.43750,-0.82227;
19:16:44.894,-0.38184,0.44507,-0.82056;
19:16:44.904,-0.38208,0.44971,-0.82031;
19:16:44.914,-0.38135,0.45190,-0.81494;
19:16:44.924,-0.38062,0.44995,-0.80591;
19:16:44.934,-0.38232,0.44019,-0.81323;
19:16:44.944,-0.38232,0.43604,-0.82690;
19:16:44.954,-0.38379,0.43457,-0.82666;
19:16:44.964,-0.38257,0.43823,-0.82104;
19:16:44.974,-0.38232,0.44141,-0.83057;
19:16:44.984,-0.38086,0.44116,-0.83691;
19:16:44.994,-0.38062,0.43579,-0.83276;
19:16:45.004,-0.38232,0.42310,-0.83008;
19:16:45.014,-0.38354,0.43433,-0.82275;
19:16:45.024,-0.38428,0.44849,-0.82178;
19:16:45.034,-0.38379,0.44678,-0.82275;
19:16:45.044,-0.38110,0.44775,-0.81396;
19:16:45.054,-0.37744,0.44336,-0.81396;
19:16:45.064,-0.37817,0.44141,-0.82129;
19:16:45.074,-0.38135,0.44189,-0.81616;
19:16:45.084,-0.38501,0.43945,-0.81055;
19:16:45.094,-0.38550,0.44385,-0.81201;
19:16:45.104,-0.38745,0.43994,-0.81299;
19:16:45.114,-0.39063,0.42944,-0.81201;
19:16:45.124,-0.39429,0.42993,-0.81177;
19:16:45.134,-0.39478,0.43237,-0.80566;
19:16:45.144,-0.39380,0.43579,-0.80371;
19:16:45.154,-0.39111,0.43774,-0.80347;
19:16:45.164,-0.38745,0.43945,-0.79980;
19:16:45.174,-0.38696,0.43726,-0.80322;
19:16:45.184,-0.38599,0.43262,-0.81250;
19:16:45.194,-0.38892,0.43481,-0.80566;
19:16:45.204,-0.38867,0.43921,-0.79614;
19:16:45.214,-0.38574,0.44775,-0.80786;
19:16:45.224,-0.37842,0.44165,-0.81860;
19:16:45.234,-0.37378,0.42969,-0.82617;
19:16:45.244,-0.37256,0.42114,-0.83301;
19:16:45.254,-0.37354,0.41943,-0.83276;
19:16:45.264,-0.37402,0.43042,-0.83105;
19:16:45.274,-0.36890,0.43164,-0.83154;
19:16:45.284,-0.36426,0.42725,-0.82935;
19:16:45.294,-0.36719,0.42480,-0.83228;
19:16:45.304,-0.37061,0.41431,-0.84814;
19:16:45.314,-0.36890,0.40137,-0.85352;
19:16:45.324,-0.36646,0.39966,-0.85791;
19:16:45.334,-0.35889,0.40430,-0.86572;
19:16:45.344,-0.35474,0.41284,-0.86084;
19:16:45.354,-0.35010,0.40991,-0.86450;
19:16:45.364,-0.33716,0.40063,-0.87720;
19:16:45.374,-0.37231,0.40771,-0.84521;
19:16:45.384,-0.36353,0.44385,-0.81982;
19:16:45.394,-0.37134,0.42749,-0.81567;
19:16:45.404,-0.38110,0.41284,-0.80518;
19:16:45.414,-0.38599,0.42090,-0.80664;
19:16:45.424,-0.38184,0.43359,-0.81421;
19:16:45.434,-0.36987,0.43481,-0.82031;
19:16:45.444,-0.35571,0.43433,-0.82446;
19:16:45.454,-0.34424,0.43335,-0.82153;
19:16:45.464,-0.34424,0.42432,-0.82593;
19:16:45.474,-0.34375,0.42212,-0.83569;
19:16:45.484,-0.34155,0.42261,-0.84106;
19:16:45.494,-0.33936,0.41748,-0.84180;
19:16:45.504,-0.33838,0.40796,-0.84814;
19:16:45.514,-0.33716,0.40283,-0.85571;
19:16:45.524,-0.33691,0.39429,-0.86060;
19:16:45.534,-0.33984,0.39893,-0.85840;
19:16:45.544,-0.33960,0.41187,-0.84888;
19:16:45.554,-0.34204,0.41211,-0.85889;
19:16:45.564,-0.33740,0.40259,-0.86597;
19:16:45.574,-0.33423,0.41016,-0.86060;
19:16:45.584,-0.33496,0.42090,-0.85620;
19:16:45.594,-0.32520,0.42651,-0.85498;
19:16:45.604,-0.32324,0.42456,-0.85229;
19:16:45.614,-0.32910,0.40332,-0.86035;
19:16:45.624,-0.33374,0.38867,-0.87549;
19:16:45.634,-0.33105,0.39258,-0.87256;
19:16:45.644,-0.32300,0.40234,-0.86279;
19:16:45.654,-0.31763,0.40479,-0.87451;
19:16:45.664,-0.31299,0.40503,-0.89087;
19:16:45.674,-0.31274,0.39526,-0.89722;
19:16:45.684,-0.31445,0.39502,-0.88647;
19:16:45.694,-0.31934,0.40967,-0.87183;
19:16:45.704,-0.32788,0.41675,-0.87573;
19:16:45.714,-0.33008,0.42578,-0.87305;
19:16:45.724,-0.32837,0.43164,-0.86230;
19:16:45.734,-0.32520,0.43262,-0.85352;
19:16:45.744,-0.32568,0.42798,-0.84961;
19:16:45.754,-0.33032,0.41821,-0.85034;
19:16:45.764,-0.32690,0.42285,-0.84839;
19:16:45.774,-0.32129,0.43945,-0.84570;
19:16:45.784,-0.31909,0.44482,-0.83862;
19:16:45.794,-0.31763,0.43970,-0.83423;
19:16:45.804,-0.31885,0.43262,-0.84619;
19:16:45.814,-0.32373,0.41040,-0.86426;
19:16:45.824,-0.32837,0.39331,-0.86841;
19:16:45.834,-0.32935,0.40381,-0.86548;
19:16:45.844,-0.32837,0.42920,-0.86646;
19:16:45.854,-0.32764,0.42871,-0.85815;
19:16:45.864,-0.32593,0.41650,-0.85449;
19:16:45.874,-0.32153,0.41772,-0.85791;
19:16:45.884,-0.31787,0.42480,-0.86084;
19:16:45.894,-0.32080,0.43579,-0.85767;
19:16:45.904,-0.32813,0.43188,-0.85327;
19:16:45.914,-0.33325,0.42871,-0.85059;
19:16:45.924,-0.32739,0.43677,-0.83984;
19:16:45.934,-0.32104,0.44165,-0.83740;
19:16:45.944,-0.32397,0.43262,-0.84399;
19:16:45.954,-0.32886,0.41919,-0.84839;
19:16:45.964,-0.33521,0.42480,-0.84155;
19:16:45.974,-0.33960,0.43799,-0.82544;
19:16:45.984,-0.33716,0.44849,-0.81934;
19:16:45.994,-0.32935,0.45801,-0.82446;
19:16:46.004,-0.32715,0.45752,-0.83032;
19:16:46.014,-0.33472,0.44897,-0.83398;
19:16:46.024,-0.33716,0.43164,-0.82983;
19:16:46.034,-0.33838,0.42798,-0.82544;
19:16:46.044,-0.33130,0.44287,-0.82007;
19:16:46.054,-0.32690,0.45386,-0.82153;
19:16:46.064,-0.32617,0.46167,-0.83398;
19:16:46.074,-0.32178,0.45532,-0.83350;
19:16:46.084,-0.32422,0.44409,-0.82764;
19:16:46.094,-0.32666,0.44385,-0.83228;
19:16:46.104,-0.33008,0.44873,-0.83887;
19:16:46.114,-0.32690,0.45435,-0.84033;
19:16:46.124,-0.32715,0.45435,-0.84106;
19:16:46.134,-0.32837,0.44800,-0.84033;
19:16:46.144,-0.32788,0.44556,-0.83862;
19:16:46.154,-0.33105,0.44653,-0.83716;
19:16:46.164,-0.33276,0.44141,-0.84302;
19:16:46.174,-0.33228,0.44092,-0.84277;
19:16:46.184,-0.32593,0.44775,-0.83569;
19:16:46.194,-0.32300,0.45142,-0.83813;
19:16:46.204,-0.32690,0.44775,-0.84717;
19:16:46.214,-0.33057,0.43628,-0.84985;
19:16:46.224,-0.32861,0.43140,-0.84790;
19:16:46.234,-0.32568,0.44214,-0.83936;
19:16:46.244,-0.32520,0.44287,-0.83643;
19:16:46.254,-0.32251,0.43237,-0.84668;
19:16:46.264,-0.31738,0.43286,-0.84839;
19:16:46.274,-0.31665,0.43701,-0.84497;
19:16:46.284,-0.31885,0.44458,-0.84204;
19:16:46.294,-0.32080,0.44775,-0.83813;
19:16:46.304,-0.32910,0.43701,-0.84375;
19:16:46.314,-0.33594,0.43018,-0.84692;
19:16:46.324,-0.33960,0.42822,-0.84424;
19:16:46.334,-0.34180,0.43091,-0.84424;
19:16:46.344,-0.33984,0.43799,-0.84351;
19:16:46.354,-0.33765,0.44019,-0.84619;
19:16:46.364,-0.33203,0.43970,-0.84180;
19:16:46.374,-0.33032,0.43970,-0.83521;
19:16:46.384,-0.32959,0.43848,-0.83203;
19:16:46.394,-0.32764,0.42920,-0.84180;
19:16:46.404,-0.33081,0.42993,-0.84204;
19:16:46.414,-0.33105,0.44019,-0.83228;
19:16:46.424,-0.32690,0.44287,-0.84424;
19:16:46.434,-0.32251,0.43774,-0.85107;
19:16:46.444,-0.32349,0.42725,-0.85132;
19:16:46.454,-0.32544,0.42456,-0.85083;
19:16:46.464,-0.32520,0.43726,-0.85010;
19:16:46.474,-0.32666,0.43921,-0.84399;
19:16:46.484,-0.33008,0.42920,-0.84229;
19:16:46.494,-0.32690,0.42456,-0.85840;
19:16:46.504,-0.32300,0.42651,-0.85962;
19:16:46.514,-0.32446,0.43530,-0.84814;
19:16:46.524,-0.32617,0.44092,-0.85107;
19:16:46.534,-0.32129,0.44116,-0.85571;
19:16:46.544,-0.30737,0.44678,-0.85254;
19:16:46.554,-0.30322,0.44043,-0.85010;
19:16:46.564,-0.31006,0.42676,-0.85571;
19:16:46.574,-0.32031,0.42139,-0.86084;
19:16:46.584,-0.32666,0.41772,-0.86157;
19:16:46.594,-0.32861,0.42065,-0.85669;
19:16:46.604,-0.32959,0.42749,-0.85571;
19:16:46.614,-0.31860,0.43628,-0.84326;
19:16:46.624,-0.32666,0.44067,-0.83643;
19:16:46.634,-0.32837,0.43188,-0.84448;
19:16:46.644,-0.32520,0.43579,-0.85010;
19:16:46.654,-0.32373,0.42407,-0.85791;
19:16:46.664,-0.32935,0.41455,-0.84741;
19:16:46.674,-0.33594,0.44751,-0.84180;
19:16:46.684,-0.33252,0.43848,-0.83862;
19:16:46.694,-0.32666,0.43530,-0.84033;
19:16:46.704,-0.31665,0.43945,-0.83887;
19:16:46.714,-0.31201,0.44043,-0.84106;
19:16:46.724,-0.31274,0.43848,-0.84937;
19:16:46.734,-0.31836,0.42456,-0.85767;
19:16:46.744,-0.32202,0.40894,-0.85962;
19:16:46.754,-0.32373,0.41235,-0.85889;
19:16:46.764,-0.32520,0.42139,-0.86108;
19:16:46.774,-0.32275,0.43677,-0.86206;
19:16:46.784,-0.32300,0.43921,-0.85913;
19:16:46.794,-0.32324,0.43213,-0.85474;
19:16:46.804,-0.32324,0.43652,-0.84473;
19:16:46.814,-0.32544,0.43896,-0.84302;
19:16:46.824,-0.32178,0.44214,-0.84546;
19:16:46.834,-0.32104,0.44409,-0.84155;
19:16:46.844,-0.31787,0.44019,-0.84326;
19:16:46.854,-0.31909,0.43188,-0.85449;
19:16:46.864,-0.32349,0.42651,-0.85474;
19:16:46.874,-0.32837,0.42310,-0.85693;
19:16:46.884,-0.33276,0.42432,-0.85645;
19:16:46.894,-0.33130,0.42993,-0.84229;
19:16:46.904,-0.32959,0.43726,-0.83569;
19:16:46.914,-0.32959,0.44604,-0.83130;
19:16:46.924,-0.33325,0.44653,-0.83203;
19:16:46.934,-0.33374,0.44214,-0.83545;
19:16:46.944,-0.33374,0.43188,-0.84058;
19:16:46.954,-0.33301,0.43237,-0.84009;
19:16:46.964,-0.33276,0.43652,-0.83984;
19:16:46.974,-0.32959,0.44092,-0.84473;
19:16:46.984,-0.32764,0.44507,-0.84082;
19:16:46.994,-0.32910,0.43652,-0.83862;
19:16:47.004,-0.32520,0.42554,-0.84717;
19:16:47.014,-0.32495,0.42627,-0.84863;
19:16:47.024,-0.32690,0.43555,-0.84473;
19:16:47.034,-0.32813,0.44116,-0.84351;
19:16:47.044,-0.33032,0.43726,-0.84546;
19:16:47.054,-0.32935,0.43359,-0.84497;
19:16:47.064,-0.32642,0.44067,-0.84180;
19:16:47.074,-0.32837,0.43945,-0.84229;
19:16:47.084,-0.33008,0.43750,-0.84497;
19:16:47.094,-0.33350,0.43726,-0.84351;
19:16:47.104,-0.33252,0.43652,-0.84302;
19:16:47.114,-0.32837,0.43921,-0.84058;
19:16:47.124,-0.32715,0.43335,-0.84717;
19:16:47.134,-0.32471,0.43140,-0.85571;
19:16:47.144,-0.32495,0.43359,-0.84937;
19:16:47.154,-0.32715,0.42700,-0.84473;
19:16:47.164,-0.32837,0.43286,-0.85107;
19:16:47.174,-0.32886,0.44360,-0.84741;
19:16:47.184,-0.32910,0.43628,-0.84106;
19:16:47.194,-0.32861,0.43457,-0.83911;
19:16:47.204,-0.33423,0.43701,-0.83789;
19:16:47.214,-0.33643,0.43604,-0.84058;
19:16:47.224,-0.33496,0.43359,-0.84082;
19:16:47.234,-0.33374,0.43140,-0.84839;
19:16:47.244,-0.33203,0.43604,-0.84790;
19:16:47.254,-0.33252,0.43799,-0.84399;
19:16:47.264,-0.33032,0.43896,-0.84399;
19:16:47.274,-0.32642,0.43921,-0.84253;
19:16:47.284,-0.32617,0.43335,-0.84351;
19:16:47.294,-0.32642,0.43066,-0.84644;
19:16:47.304,-0.32593,0.43140,-0.84595;
19:16:47.314,-0.32813,0.43213,-0.84375;
19:16:47.324,-0.32983,0.43457,-0.84741;
19:16:47.334,-0.33203,0.43799,-0.84717;
19:16:47.344,-0.33496,0.43896,-0.84302;
19:16:47.354,-0.33618,0.43262,-0.84668;
19:16:47.364,-0.33105,0.43335,-0.84546;
19:16:47.374,-0.32788,0.43652,-0.84277;
19:16:47.384,-0.32813,0.43945,-0.84424;
19:16:47.394,-0.32788,0.43774,-0.84619;
19:16:47.404,-0.32544,0.42920,-0.85229;
19:16:47.414,-0.32568,0.43335,-0.84570;
19:16:47.424,-0.32959,0.43872,-0.83960;
19:16:47.434,-0.32886,0.43237,-0.84424;
19:16:47.444,-0.32690,0.43433,-0.84961;
19:16:47.454,-0.32690,0.43530,-0.84790;
19:16:47.464,-0.32910,0.43408,-0.84180;
19:16:47.474,-0.33081,0.43994,-0.83887;
19:16:47.484,-0.32813,0.44214,-0.83862;
19:16:47.494,-0.32764,0.43774,-0.84253;
19:16:47.504,-0.33081,0.42676,-0.84766;
19:16:47.514,-0.33008,0.42456,-0.84790;
19:16:47.524,-0.32837,0.42847,-0.85205;
19:16:47.534,-0.32910,0.42871,-0.85400;
19:16:47.544,-0.32715,0.43726,-0.84985;
19:16:47.554,-0.32324,0.44165,-0.84814;
19:16:47.564,-0.32520,0.43677,-0.84790;
19:16:47.574,-0.32959,0.43604,-0.84790;
19:16:47.584,-0.33325,0.43262,-0.84082;
19:16:47.594,-0.33643,0.43262,-0.83521;
19:16:47.604,-0.33594,0.44019,-0.83521;
19:16:47.614,-0.33423,0.44336,-0.83350;
19:16:47.624,-0.33057,0.43384,-0.83838;
19:16:47.634,-0.33374,0.42383,-0.85132;
19:16:47.644,-0.33276,0.42969,-0.85229;
19:16:47.654,-0.32935,0.43799,-0.84351;
19:16:47.664,-0.32495,0.44165,-0.83496;
19:16:47.674,-0.32471,0.44360,-0.84302;
19:16:47.684,-0.32495,0.44067,-0.84497;
19:16:47.694,-0.32642,0.43408,-0.84058;
19:16:47.704,-0.33130,0.42261,-0.84180;
19:16:47.714,-0.33301,0.42480,-0.84033;
19:16:47.724,-0.33276,0.43188,-0.84692;
19:16:47.734,-0.32910,0.43774,-0.84668;
19:16:47.744,-0.33374,0.44287,-0.83960;
19:16:47.754,-0.33423,0.43970,-0.84595;
19:16:47.764,-0.33179,0.43555,-0.85156;
19:16:47.774,-0.33179,0.42822,-0.84839;
19:16:47.784,-0.33057,0.43213,-0.84375;
19:16:47.794,-0.32910,0.43579,-0.84131;
19:16:47.804,-0.32813,0.42920,-0.85059;
19:16:47.814,-0.32617,0.43213,-0.85083;
19:16:47.824,-0.32813,0.43311,-0.84668;
19:16:47.834,-0.32861,0.42920,-0.85107;
19:16:47.844,-0.32446,0.43628,-0.84375;
19:16:47.854,-0.32617,0.44482,-0.83813;
19:16:47.864,-0.32813,0.44336,-0.83960;
19:16:47.874,-0.33496,0.43604,-0.83667;
19:16:47.884,-0.33887,0.43262,-0.83691;
19:16:47.894,-0.33813,0.42651,-0.83984;
19:16:47.904,-0.33398,0.43896,-0.85034;
19:16:47.914,-0.32349,0.44287,-0.86084;
19:16:47.924,-0.31714,0.42627,-0.83789;
19:16:47.934,-0.33203,0.43750,-0.83740;
19:16:47.944,-0.33813,0.43750,-0.83594;
19:16:47.954,-0.33521,0.42749,-0.84546;
19:16:47.964,-0.31665,0.42725,-0.85864;
19:16:47.974,-0.31006,0.44580,-0.84644;
19:16:47.984,-0.32788,0.43042,-0.84448;
19:16:47.994,-0.33325,0.42529,-0.83789;
19:16:48.004,-0.33936,0.42480,-0.84082;
19:16:48.014,-0.34521,0.43799,-0.83960;
19:16:48.024,-0.34229,0.44824,-0.84229;
19:16:48.034,-0.33081,0.45142,-0.84521;
19:16:48.044,-0.31763,0.44556,-0.83887;
19:16:48.054,-0.31152,0.43213,-0.84546;
19:16:48.064,-0.31152,0.43481,-0.84399;
19:16:48.074,-0.31079,0.44702,-0.83423;
19:16:48.084,-0.32227,0.43921,-0.83911;
19:16:48.094,-0.33374,0.42285,-0.85864;
19:16:48.104,-0.32935,0.42065,-0.87305;
19:16:48.114,-0.33032,0.43335,-0.86694;
19:16:48.124,-0.32544,0.42822,-0.86353;
19:16:48.134,-0.31396,0.42139,-0.87915;
19:16:48.144,-0.29541,0.43896,-0.86719;
19:16:48.154,-0.28467,0.45483,-0.85352;
19:16:48.164,-0.28613,0.45728,-0.85791;
19:16:48.174,-0.29517,0.44141,-0.85352;
19:16:48.184,-0.31445,0.41797,-0.84839;
19:16:48.194,-0.32568,0.39941,-0.84570;
19:16:48.204,-0.33984,0.39990,-0.85278;
19:16:48.214,-0.35718,0.40308,-0.87280;
19:16:48.224,-0.36157,0.39673,-0.90259;
19:16:48.234,-0.35718,0.40723,-0.90063;
19:16:48.244,-0.35254,0.41235,-0.89038;
19:16:48.254,-0.35547,0.39844,-0.89429;
19:16:48.264,-0.35400,0.40137,-0.89111;
19:16:48.274,-0.34912,0.41357,-0.87549;
19:16:48.284,-0.35596,0.41138,-0.85938;
19:16:48.294,-0.36279,0.42163,-0.85400;
19:16:48.304,-0.36938,0.42651,-0.86011;
19:16:48.314,-0.37817,0.42456,-0.87036;
19:16:48.324,-0.38525,0.43115,-0.88501;
19:16:48.334,-0.38818,0.42236,-0.94653;
19:16:48.344,-0.39063,0.42749,-1.00391;
19:16:48.354,-0.39697,0.46582,-0.99976;
19:16:48.364,-0.41968,0.49731,-0.96802;
19:16:48.374,-0.45972,0.52808,-0.95337;
19:16:48.384,-0.45923,0.52661,-0.92090;
19:16:48.394,-0.44604,0.48853,-0.87061;
19:16:48.404,-0.47095,0.46655,-0.82007;
19:16:48.414,-0.50830,0.47949,-0.82007;
19:16:48.424,-0.60278,0.54395,-0.71631;
19:16:48.434,-0.63330,0.56226,-0.64331;
19:16:48.444,-0.64063,0.52368,-0.68726;
19:16:48.454,-0.65649,0.50342,-0.80298;
19:16:48.464,-0.66724,0.61353,-0.94238;
19:16:48.474,-0.71216,0.77686,-0.90845;
19:16:48.484,-0.69507,0.69458,-0.57837;
19:16:48.494,-0.72656,0.57642,-0.41309;
19:16:48.504,-0.74756,0.44482,-0.49683;
19:16:48.514,-0.69751,0.49365,-0.28955;
19:16:48.524,-0.72900,0.55786,-0.21899;
19:16:48.534,-0.79395,0.59644,-0.41602;
19:16:48.544,-0.74756,0.64355,-0.53833;
19:16:48.554,-0.67676,0.67798,-0.51074;
19:16:48.564,-0.65698,0.63892,-0.46899;
19:16:48.574,-0.65942,0.51025,-0.46362;
19:16:48.584,-0.63892,0.37305,-0.48315;
19:16:48.594,-0.62793,0.25366,-0.48511;
19:16:48.604,-0.60938,0.20117,-0.44336;
19:16:48.614,-0.62671,0.20630,-0.44312;
19:16:48.624,-0.63818,0.23926,-0.46826;
19:16:48.634,-0.61426,0.26587,-0.45972;
19:16:48.644,-0.58325,0.28345,-0.43579;
19:16:48.654,-0.56177,0.29297,-0.39478;
19:16:48.664,-0.54614,0.30884,-0.36670;
19:16:48.674,-0.53320,0.36914,-0.38965;
19:16:48.684,-0.50806,0.47559,-0.41748;
19:16:48.694,-0.47729,0.55273,-0.37598;
19:16:48.704,-0.46558,0.51880,-0.33936;
19:16:48.714,-0.44580,0.38086,-0.33813;
19:16:48.724,-0.41162,0.20703,-0.34180;
19:16:48.734,-0.35669,0.19775,-0.29102;
19:16:48.744,-0.34814,0.24512,-0.24780;
19:16:48.754,-0.39502,0.17285,-0.23779;
19:16:48.764,-1.03638,0.92871,-1.34302;
19:16:48.774,-1.68311,3.57324,-3.06763;
19:16:48.784,-0.57202,4.28955,-1.14868;
19:16:48.794,0.07202,2.52319,1.48169;
19:16:48.804,-0.43677,0.02393,1.04419;
19:16:48.814,-0.27856,-1.46997,0.30029;
19:16:48.824,-0.50757,-0.55957,-0.11694;
19:16:48.834,-1.05664,0.92017,-0.32617;
19:16:48.844,-1.00024,1.24072,0.67822;
19:16:48.854,-1.24414,0.45874,0.05151;
19:16:48.864,-1.24390,-0.05688,-0.47217;
19:16:48.874,-1.12305,-0.08936,-0.50195;
19:16:48.884,-1.04053,-0.00195,-0.31494;
19:16:48.894,-1.05200,0.16357,-0.14575;
19:16:48.904,-1.02222,0.28735,-0.07300;
19:16:48.914,-0.89893,0.49463,-0.01514;
19:16:48.924,-0.73071,0.70972,0.08691;
19:16:48.934,-0.62549,0.85327,0.14771;
19:16:48.944,-0.61035,0.82300,0.12988;
19:16:48.954,-0.69214,0.69312,0.04590;
19:16:48.964,-0.86426,0.53516,-0.08252;
19:16:48.974,-0.99658,0.41187,-0.15552;
19:16:48.984,-1.03320,0.33643,-0.11987;
19:16:48.994,-1.04492,0.27490,-0.06177;
19:16:49.004,-1.05859,0.26343,-0.03467;
19:16:49.014,-1.02979,0.35718,0.01538;
19:16:49.024,-0.96460,0.47632,0.04077;
19:16:49.034,-0.89868,0.51270,-0.01514;
19:16:49.044,-0.80762,0.50537,-0.02466;
19:16:49.054,-0.75513,0.50366,0.06299;
19:16:49.064,-0.81030,0.49414,0.15137;
19:16:49.074,-0.89380,0.46997,0.17163;
19:16:49.084,-0.93848,0.43262,0.14282;
19:16:49.094,-0.95825,0.40723,0.12793;
19:16:49.104,-0.94873,0.41479,0.13965;
19:16:49.114,-0.94385,0.37329,0.14697;
19:16:49.124,-0.96875,0.29248,0.15039;
19:16:49.134,-0.96606,0.28882,0.17383;
19:16:49.144,-0.94409,0.32544,0.18237;
19:16:49.154,-0.94312,0.22021,0.13037;
19:16:49.164,-1.04712,0.23926,0.15991;
19:16:49.174,-0.92334,0.19189,0.12671;
19:16:49.184,-1.03516,0.03320,0.10718;
19:16:49.194,-0.96411,0.19922,0.13892;
19:16:49.204,-0.94604,-0.02563,0.06592;
19:16:49.214,-0.99707,-0.04175,0.07593;
19:16:49.224,-0.95923,0.00269,0.13745;
19:16:49.234,-0.97754,-0.05420,0.14648;
19:16:49.244,-0.99634,-0.10498,0.10376;
19:16:49.254,-0.99268,-0.12598,0.05713;
19:16:49.264,-0.96851,-0.17114,0.05737;
19:16:49.274,-0.97241,-0.24023,0.09521;
19:16:49.284,-0.98071,-0.24756,0.10547;
19:16:49.294,-0.95386,-0.22998,0.12939;
19:16:49.304,-0.98999,-0.20532,0.16040;
19:16:49.314,-0.98267,-0.17603,0.11035;
19:16:49.324,-0.96606,-0.21313,0.08032;
19:16:49.334,-0.99634,-0.16064,0.12183;
19:16:49.344,-0.99048,-0.11353,0.15820;
19:16:49.354,-0.99585,-0.18555,0.14502;
19:16:49.364,-0.99170,-0.20215,0.13428;
19:16:49.374,-0.96582,-0.11426,0.19507;
19:16:49.384,-0.93896,-0.07373,0.22900;
19:16:49.394,-0.89990,-0.10840,0.29663;
19:16:49.404,-0.92041,-0.14502,0.26147;
19:16:49.414,-0.95972,-0.15405,0.18701;
19:16:49.424,-0.95361,-0.10400,0.19800;
19:16:49.434,-1.00049,-0.05664,0.24072;
19:16:49.444,-1.02783,-0.12744,0.21533;
19:16:49.454,-1.00806,-0.24023,0.16602;
19:16:49.464,-0.94360,-0.20435,0.24414;
19:16:49.474,-0.90283,-0.14600,0.30493;
19:16:49.484,-0.96387,-0.23511,0.25781;
19:16:49.494,-0.95996,-0.16602,0.45898;
19:16:49.504,-0.92603,-0.15576,0.42773;
19:16:49.514,-0.98926,-0.20264,0.38721;
19:16:49.524,-0.98608,-0.31494,0.37817;
19:16:49.534,-0.94702,-0.26758,0.48657;
19:16:49.544,-0.87964,-0.22388,0.66431;
19:16:49.554,-0.85669,-0.29907,0.56006;
19:16:49.564,-0.77075,-0.42773,0.47095;
19:16:49.574,-0.81079,-0.45947,0.42212;
19:16:49.584,-0.95044,-0.33618,0.14233;
19:16:49.594,-0.92041,-0.34082,-0.01855;
19:16:49.604,-1.00830,-0.30518,-0.08447;
19:16:49.614,-1.02368,-0.27612,-0.19873;
19:16:49.624,-0.95264,-0.31641,-0.13940;
19:16:49.634,-0.90503,-0.32202,0.07031;
19:16:49.644,-0.86621,-0.35840,0.28564;
19:16:49.654,-0.79517,-0.40796,0.36133;
19:16:49.664,-0.71851,-0.48120,0.31714;
19:16:49.674,-0.74927,-0.47681,0.26392;
19:16:49.684,-0.87134,-0.43140,0.15161;
19:16:49.694,-0.95532,-0.39380,0.12817;
19:16:49.704,-0.83105,-0.42944,0.25024;
19:16:49.714,-0.77271,-0.54224,0.34033;
19:16:49.724,-1.03418,-0.46167,0.15796;
19:16:49.734,-1.04468,-0.33667,0.12329;
19:16:49.744,-0.96509,-0.40356,0.30884;
19:16:49.754,-0.89014,-0.46729,0.43140;
19:16:49.764,-0.88208,-0.46606,0.43262;
19:16:49.774,-0.83813,-0.48047,0.37207;
19:16:49.784,-0.83008,-0.47607,0.33081;
19:16:49.794,-0.84082,-0.47485,0.40356;
19:16:49.804,-0.87524,-0.52661,0.54785;
19:16:49.814,-0.85767,-0.56909,0.65112;
19:16:49.824,-0.81396,-0.52344,0.72607;
19:16:49.834,-0.77417,-0.52563,0.78540;
19:16:49.844,-0.81226,-0.64990,0.75659;
19:16:49.854,-0.90625,-0.63892,0.64746;
19:16:49.864,-0.94849,-0.48560,0.52856;
19:16:49.874,-0.96997,-0.44946,0.50903;
19:16:49.884,-0.95898,-0.52319,0.39233;
19:16:49.894,-0.91284,-0.47632,0.26929;
19:16:49.904,-0.88696,-0.35254,0.11548;
19:16:49.914,-0.78687,-0.36255,-0.06860;
19:16:49.924,-0.74268,-0.37939,-0.14111;
19:16:49.934,-0.72827,-0.41333,-0.22534;
19:16:49.944,-0.71387,-0.43481,-0.33081;
19:16:49.954,-0.68628,-0.44434,-0.45313;
19:16:49.964,-0.62109,-0.46362,-0.48633;
19:16:49.974,-0.62720,-0.49414,-0.37329;
19:16:49.984,-0.69189,-0.54541,-0.15137;
19:16:49.994,-0.75830,-0.51636,0.08569;
19:16:50.004,-0.78149,-0.52368,0.30420;
19:16:50.014,-0.83325,-0.61157,0.45923;
19:16:50.024,-0.86792,-0.59180,0.48657;
19:16:50.034,-0.88696,-0.56641,0.38135;
19:16:50.044,-0.89111,-0.55688,0.27417;
19:16:50.054,-0.88892,-0.56348,0.17896;
19:16:50.064,-0.88794,-0.56348,0.09595;
19:16:50.074,-0.86963,-0.55737,0.02295;
19:16:50.084,-0.83472,-0.55518,-0.00684;
19:16:50.094,-0.80420,-0.58350,0.03418;
19:16:50.104,-0.79224,-0.58667,0.12939;
19:16:50.114,-0.78857,-0.57056,0.23779;
19:16:50.124,-0.77319,-0.56299,0.30005;
19:16:50.134,-0.76685,-0.59302,0.34839;
19:16:50.144,-0.75610,-0.60010,0.35742;
19:16:50.154,-0.74292,-0.57446,0.32324;
19:16:50.164,-0.74097,-0.55347,0.26953;
19:16:50.174,-0.73413,-0.54614,0.22510;
19:16:50.184,-0.72656,-0.58472,0.23926;
19:16:50.194,-0.73291,-0.58496,0.26538;
19:16:50.204,-0.74683,-0.56982,0.28638;
19:16:50.214,-0.76880,-0.57520,0.29492;
19:16:50.224,-0.76953,-0.56348,0.29663;
19:16:50.234,-0.76465,-0.58154,0.30713;
19:16:50.244,-0.76147,-0.58154,0.30688;
19:16:50.254,-0.76025,-0.58545,0.30713;
19:16:50.264,-0.75903,-0.58374,0.32568;
19:16:50.274,-0.76465,-0.56299,0.35278;
19:16:50.284,-0.78687,-0.55933,0.37769;
19:16:50.294,-0.81055,-0.56494,0.36475;
19:16:50.304,-0.80518,-0.56763,0.32788;
19:16:50.314,-0.79883,-0.58569,0.30005;
19:16:50.324,-0.81787,-0.59131,0.24146;
19:16:50.334,-0.88843,-0.56152,0.20801;
19:16:50.344,-0.90942,-0.59253,0.25244;
19:16:50.354,-0.83472,-0.56177,0.22705;
19:16:50.364,-0.82593,-0.61011,0.08887;
19:16:50.374,-0.74927,-0.85474,0.13086;
19:16:50.384,-0.75122,-0.83765,0.30151;
19:16:50.394,-0.67627,-0.72241,0.34155;
19:16:50.404,-0.63086,-0.98682,0.40649;
19:16:50.414,-0.59863,-1.75073,0.40112;
19:16:50.424,-0.56226,-2.00073,-0.02148;
19:16:50.434,-0.49731,-1.52002,-0.53076;
19:16:50.444,-0.36499,-1.03076,-0.75073;
19:16:50.454,-0.26685,-0.72803,-0.79321;
19:16:50.464,-0.23535,-0.43726,-0.57666;
19:16:50.474,-0.18823,-0.12671,-0.28027;
19:16:50.484,-0.22607,0.30273,0.03076;
19:16:50.494,-0.25464,0.75439,0.38696;
19:16:50.504,-0.36377,1.38940,0.58740;
19:16:50.514,-0.52026,2.22729,1.04150;
19:16:50.524,-1.24878,-0.30908,1.90869;
19:16:50.534,-2.05176,-3.59277,1.86377;
19:16:50.544,-2.08789,-1.18896,0.91064;
19:16:50.554,-1.79517,0.14575,0.18262;
19:16:50.564,-1.67773,-1.15137,-0.29785;
19:16:50.574,-1.47021,-0.67529,-0.56909;
19:16:50.584,-1.10181,-0.47632,-0.57959;
19:16:50.594,-0.88672,-0.69556,-0.37427;
19:16:50.604,-0.61694,-0.74414,-0.13599;
19:16:50.614,-0.40942,-0.71045,0.14136;
19:16:50.624,-0.23340,-0.76733,0.38257;
19:16:50.634,-0.15405,-0.74072,0.54614;
19:16:50.644,-0.15479,-0.64941,0.64258;
19:16:50.654,-0.21851,-0.65845,0.65894;
19:16:50.664,-0.28516,-0.70825,0.58252;
19:16:50.674,-0.38281,-0.73389,0.44458;
19:16:50.684,-0.49072,-0.71753,0.27441;
19:16:50.694,-0.57300,-0.71729,0.11401;
19:16:50.704,-0.67090,-0.73535,-0.00391;
19:16:50.714,-0.75537,-0.69263,-0.07324;
19:16:50.724,-0.80151,-0.64087,-0.08545;
19:16:50.734,-0.84570,-0.64722,-0.03784;
19:16:50.744,-0.88013,-0.66846,0.04688;
19:16:50.754,-0.90137,-0.69238,0.24829;
19:16:50.764,-0.89331,-0.68408,0.35107;
19:16:50.774,-0.87207,-0.68799,0.41602;
19:16:50.784,-0.83667,-0.68896,0.43237;
19:16:50.794,-0.78369,-0.67163,0.39844;
19:16:50.804,-0.74023,-0.64966,0.32666;
19:16:50.814,-0.69507,-0.65332,0.24878;
19:16:50.824,-0.65991,-0.66479,0.18042;
19:16:50.834,-0.65161,-0.66895,0.13086;
19:16:50.844,-0.64795,-0.66089,0.08472;
19:16:50.854,-0.65283,-0.64990,0.04175;
19:16:50.864,-0.66724,-0.64282,0.01953;
19:16:50.874,-0.69165,-0.62744,0.00537;
19:16:50.884,-0.71021,-0.61841,0.01196;
19:16:50.894,-0.74536,-0.61963,0.04248;
19:16:50.904,-0.80029,-0.62793,0.06909;
19:16:50.914,-0.85254,-0.61304,0.08032;
19:16:50.924,-0.87842,-0.60718,0.08545;
19:16:50.934,-0.90552,-0.60571,0.05225;
19:16:50.944,-0.90869,-0.63281,0.03589;
19:16:50.954,-0.89600,-0.62183,0.01367;
19:16:50.964,-0.89087,-0.61987,-0.02393;
19:16:50.974,-0.90503,-0.62036,-0.06836;
19:16:50.984,-0.92725,-0.60864,-0.10962;
19:16:50.994,-0.95703,-0.63354,-0.13281;
19:16:51.004,-0.99463,-0.65894,-0.13452;
19:16:51.014,-1.03418,-0.62866,-0.15088;
19:16:51.024,-1.07129,-0.55615,-0.12256;
19:16:51.034,-1.13696,-0.50415,-0.09155;
19:16:51.044,-1.13550,-0.60596,-0.08032;
19:16:51.054,-1.05566,-0.81421,-0.07593;
19:16:51.064,-0.81738,-0.92456,-0.05713;
19:16:51.074,-0.48608,-0.90430,-0.03564;
19:16:51.084,-0.18921,-0.80322,-0.01196;
19:16:51.094,0.05469,-0.60840,0.29517;
19:16:51.104,-0.27246,-0.79028,0.21973;
19:16:51.114,-0.56519,-0.57764,-0.31055;
19:16:51.124,-0.32983,0.15015,-0.64331;
19:16:51.134,-0.17285,0.29175,-0.61426;
19:16:51.144,-0.15088,0.15234,-0.29761;
19:16:51.154,-0.15356,0.02930,-0.00171;
19:16:51.164,-0.27588,-0.67578,-0.37036;
19:16:51.174,-0.31763,-1.62744,0.37817;
19:16:51.184,-0.53955,-2.09521,1.41699;
19:16:51.194,-1.29028,0.59155,0.89795;
19:16:51.204,-1.18140,-0.48926,0.71533;
19:16:51.214,-1.48828,-1.44580,0.34985;
19:16:51.224,-1.47388,-0.78784,-0.20239;
19:16:51.234,-1.41675,-0.21094,-0.51270;
19:16:51.244,-1.41626,-0.30835,-0.66357;
19:16:51.254,-1.25903,-0.57446,-0.58813;
19:16:51.264,-1.09619,-0.70483,-0.35205;
19:16:51.274,-0.88159,-0.71704,-0.09106;
19:16:51.284,-0.74780,-0.68481,0.12305;
19:16:51.294,-0.56055,-0.69702,0.27905;
19:16:51.304,-0.41016,-0.70337,0.41748;
19:16:51.314,-0.30981,-0.68994,0.48218;
19:16:51.324,-0.25928,-0.63892,0.49292;
19:16:51.334,-0.28687,-0.58130,0.46436;
19:16:51.344,-0.34692,-0.60205,0.39160;
19:16:51.354,-0.42358,-0.63379,0.29321;
19:16:51.364,-0.52832,-0.66455,0.17163;
19:16:51.374,-0.63428,-0.66675,-0.00562;
19:16:51.384,-0.74487,-0.62500,-0.17773;
19:16:51.394,-0.85229,-0.62476,-0.33057;
19:16:51.404,-0.94043,-0.61865,-0.45703;
19:16:51.414,-1.01050,-0.56299,-0.48999;
19:16:51.424,-1.00586,-0.50903,-0.45728;
19:16:51.434,-0.94580,-0.55078,-0.28784;
19:16:51.444,-0.86377,-0.64648,-0.02881;
19:16:51.454,-0.79785,-0.68652,0.23413;
19:16:51.464,-0.72754,-0.66846,0.40283;
19:16:51.474,-0.67529,-0.65454,0.46118;
19:16:51.484,-0.62720,-0.70044,0.49902;
19:16:51.494,-0.55786,-0.73828,0.48535;
19:16:51.504,-0.51440,-0.74756,0.37402;
19:16:51.514,-0.50513,-0.70044,0.15552;
19:16:51.524,-0.50830,-0.66553,-0.04883;
19:16:51.534,-0.51318,-0.66528,-0.12451;
19:16:51.544,-0.65186,-0.66772,-0.07520;
19:16:51.554,-0.85669,-0.73413,0.01782;
19:16:51.564,-1.13037,-0.74731,0.11914;
19:16:51.574,-0.94385,-0.73706,0.21582;
19:16:51.584,-0.82739,-0.74951,0.23169;
19:16:51.594,-0.71802,-0.71802,0.13232;
19:16:51.604,-0.71631,-0.68774,0.10767;
19:16:51.614,-0.78711,-0.68604,0.11987;
19:16:51.624,-0.76978,-0.67554,0.09253;
19:16:51.634,-0.73877,-0.64941,0.08057;
19:16:51.644,-0.72705,-0.63965,0.08301;
19:16:51.654,-0.73413,-0.66260,0.08862;
19:16:51.664,-0.72095,-0.67505,0.07275;
19:16:51.674,-0.65918,-0.68604,0.05786;
19:16:51.684,-0.62354,-0.69800,0.03711;
19:16:51.694,-0.63623,-0.68970,0.01074;
19:16:51.704,-0.71167,-0.64429,-0.02222;
19:16:51.714,-0.76001,-0.62427,-0.05249;
19:16:51.724,-0.75610,-0.63892,-0.02222;
19:16:51.734,-0.77515,-0.64307,0.03369;
19:16:51.744,-0.75098,-0.68652,0.08789;
19:16:51.754,-0.74902,-0.70020,0.11401;
19:16:51.764,-0.76001,-0.65430,0.09717;
19:16:51.774,-0.75195,-0.62842,0.08569;
19:16:51.784,-0.74219,-0.62866,0.11621;
19:16:51.794,-0.71655,-0.64819,0.16479;
19:16:51.804,-0.65747,-0.71289,0.18433;
19:16:51.814,-0.64014,-0.73926,0.11938;
19:16:51.824,-0.65771,-0.67432,-0.01587;
19:16:51.834,-0.65894,-0.62109,-0.13159;
19:16:51.844,-0.66870,-0.62109,-0.17944;
19:16:51.854,-0.69336,-0.62427,-0.16553;
19:16:51.864,-0.69702,-0.61938,-0.09155;
19:16:51.874,-0.67822,-0.61987,0.03613;
19:16:51.884,-0.69922,-0.63354,0.16504;
19:16:51.894,-0.72974,-0.67725,0.22363;
19:16:51.904,-0.74243,-0.71118,0.21924;
19:16:51.914,-0.75488,-0.66772,0.17432;
19:16:51.924,-0.75879,-0.62085,0.07373;
19:16:51.934,-0.74756,-0.60254,-0.03906;
19:16:51.944,-0.74097,-0.57666,-0.10352;
19:16:51.954,-0.73535,-0.58203,-0.08643;
19:16:51.964,-0.73999,-0.61694,-0.02612;
19:16:51.974,-0.72778,-0.61792,0.03638;
19:16:51.984,-0.73267,-0.60156,0.06348;
19:16:51.994,-0.77393,-0.58350,0.04736;
19:16:52.004,-0.77759,-0.56250,0.04736;
19:16:52.014,-0.81006,-0.56201,0.04565;
19:16:52.024,-0.84937,-0.55127,0.03516;
19:16:52.034,-0.83862,-0.54175,0.02832;
19:16:52.044,-0.83667,-0.53735,0.02319;
19:16:52.054,-0.81445,-0.52734,0.02466;
19:16:52.064,-0.83081,-0.54370,0.06226;
19:16:52.074,-0.86401,-0.53296,0.08130;
19:16:52.084,-0.88525,-0.51636,0.06274;
19:16:52.094,-0.90234,-0.49634,0.02173;
19:16:52.104,-0.94385,-0.44775,-0.02881;
19:16:52.114,-0.97461,-0.43555,-0.04980;
19:16:52.124,-1.01807,-0.43408,-0.03027;
19:16:52.134,-1.06494,-0.40039,-0.00146;
19:16:52.144,-1.10034,-0.38013,0.01392;
19:16:52.154,-1.11670,-0.36987,0.00684;
19:16:52.164,-1.09375,-0.37817,0.00781;
19:16:52.174,-1.05103,-0.40039,0.01123;
19:16:52.184,-0.97192,-0.40015,-0.00342;
19:16:52.194,-0.88574,-0.40552,-0.01392;
19:16:52.204,-0.86768,-0.39844,-0.00830;
19:16:52.214,-0.88184,-0.37427,-0.01904;
19:16:52.224,-0.88086,-0.35742,-0.03662;
19:16:52.234,-0.87427,-0.34106,-0.05005;
19:16:52.244,-0.84082,-0.36255,-0.06470;
19:16:52.254,-0.80908,-0.39282,-0.02710;
19:16:52.264,-0.82104,-0.38696,0.03564;
19:16:52.274,-0.87964,-0.35791,0.05054;
19:16:52.284,-0.90918,-0.34155,-0.00659;
19:16:52.294,-0.90381,-0.36328,-0.07617;
19:16:52.304,-0.89941,-0.34399,-0.08105;
19:16:52.314,-0.89087,-0.31445,-0.04297;
19:16:52.324,-0.92578,-0.28906,0.00464;
19:16:52.334,-0.93726,-0.28784,0.02124;
19:16:52.344,-0.95483,-0.29834,0.04712;
19:16:52.354,-0.98584,-0.29712,0.06079;
19:16:52.364,-1.02563,-0.27979,0.01709;
19:16:52.374,-1.06055,-0.22949,-0.00757;
19:16:52.384,-1.06689,-0.21338,0.01880;
19:16:52.394,-1.06738,-0.19434,0.04517;
19:16:52.404,-1.03149,-0.20972,0.01392;
19:16:52.414,-0.96069,-0.26685,-0.00879;
19:16:52.424,-0.92529,-0.25317,0.01538;
19:16:52.434,-0.94165,-0.21948,0.02563;
19:16:52.444,-0.92969,-0.23218,0.05005;
19:16:52.454,-0.90747,-0.27319,0.06665;
19:16:52.464,-0.89771,-0.26978,0.06055;
19:16:52.474,-0.89185,-0.24316,0.04858;
19:16:52.484,-0.90869,-0.22876,0.05249;
19:16:52.494,-0.92310,-0.22363,0.07666;
19:16:52.504,-0.92090,-0.24243,0.13159;
19:16:52.514,-0.94092,-0.22583,0.17920;
19:16:52.524,-0.98999,-0.17310,0.11865;
19:16:52.534,-1.03931,-0.11011,0.01001;
19:16:52.544,-1.06665,-0.09375,-0.02295;
19:16:52.554,-1.08081,-0.13306,-0.00342;
19:16:52.564,-1.02637,-0.15967,-0.00781;
19:16:52.574,-0.99707,-0.14185,0.00122;
19:16:52.584,-0.98218,-0.15137,0.04053;
19:16:52.594,-0.99390,-0.19385,0.09839;
19:16:52.604,-1.01294,-0.19360,0.16162;
19:16:52.614,-1.03955,-0.15454,0.19189;
19:16:52.624,-1.08154,-0.09277,0.16724;
19:16:52.634,-1.11548,-0.02808,0.11230;
19:16:52.644,-1.13428,0.00269,-0.00586;
19:16:52.654,-1.12207,0.01538,-0.26978;
19:16:52.664,-1.03198,-0.04907,-0.02466;
19:16:52.674,-1.06836,-0.07446,0.33545;
19:16:52.684,-1.11768,-0.07959,0.44751;
19:16:52.694,-1.10986,-0.11987,0.58545;
19:16:52.704,-1.14087,-0.11279,0.52979;
19:16:52.714,-1.12842,-0.11108,0.44604;
19:16:52.724,-1.15991,-0.08179,0.30249;
19:16:52.734,-1.18335,-0.03711,0.15698;
19:16:52.744,-1.16455,0.04126,0.04175;
19:16:52.754,-1.13770,0.13745,0.00195;
19:16:52.764,-1.14722,-0.00122,-0.23901;
19:16:52.774,-1.03442,-0.71729,-0.40259;
19:16:52.784,-1.00122,-1.72119,0.27075;
19:16:52.794,-1.22705,-1.13647,-0.27222;
19:16:52.804,-1.15527,-0.66895,-0.12427;
19:16:52.814,-1.07275,-0.36450,-0.14136;
19:16:52.824,-1.06128,-0.22778,-0.14941;
19:16:52.834,-0.96533,-0.00488,-0.16040;
19:16:52.844,-0.94556,-0.00464,-0.13354;
19:16:52.854,-0.93311,-0.02979,-0.09546;
19:16:52.864,-0.91724,-0.06812,-0.04883;
19:16:52.874,-0.90454,-0.08057,0.00952;
19:16:52.884,-0.89844,-0.06787,0.08008;
19:16:52.894,-0.87866,-0.04932,0.16577;
19:16:52.904,-0.84204,-0.04761,0.22949;
19:16:52.914,-0.82764,-0.06421,0.25806;
19:16:52.924,-0.81860,-0.06421,0.27368;
19:16:52.934,-0.80664,-0.03149,0.27441;
19:16:52.944,-0.79443,-0.04492,0.26685;
19:16:52.954,-0.77075,-0.09424,0.26782;
19:16:52.964,-0.77344,-0.06567,0.28442;
19:16:52.974,-0.80444,0.00952,0.30371;
19:16:52.984,-0.81299,0.04761,0.29688;
19:16:52.994,-0.80029,0.05273,0.31177;
19:16:53.004,-0.80933,0.11011,0.36597;
19:16:53.014,-0.80542,0.27417,0.36523;
19:16:53.024,-0.77002,0.44971,0.28027;
19:16:53.034,-0.71069,0.28418,0.22144;
19:16:53.044,-0.72046,0.02148,0.32910;
19:16:53.054,-0.91064,1.10645,0.02661;
19:16:53.064,-0.69141,2.20068,0.05981;
19:16:53.074,-1.12598,2.00122,0.07471;
19:16:53.084,-1.78076,-0.24146,0.22437;
19:16:53.094,-2.06421,-1.56177,0.45972;
19:16:53.104,-1.48975,0.50684,0.20947;
19:16:53.114,-1.41455,0.34448,0.24951;
19:16:53.124,-1.33447,0.04688,0.23706;
19:16:53.134,-1.34473,0.12622,0.11230;
19:16:53.144,-1.29614,0.07544,0.12915;
19:16:53.154,-1.15845,0.01318,0.15039;
19:16:53.164,-1.13452,-0.11377,0.16846;
19:16:53.174,-1.08032,-0.21655,0.18555;
19:16:53.184,-1.00122,-0.19165,0.15015;
19:16:53.194,-0.98438,-0.15576,0.05518;
19:16:53.204,-0.95972,-0.19629,-0.01880;
19:16:53.214,-0.93140,-0.25342,-0.06689;
19:16:53.224,-0.91846,-0.27832,-0.10254;
19:16:53.234,-0.93018,-0.22900,-0.13647;
19:16:53.244,-0.94702,-0.15576,-0.16235;
19:16:53.254,-0.95166,-0.12012,-0.15576;
19:16:53.264,-0.96924,-0.11572,-0.12134;
19:16:53.274,-0.99463,-0.12939,-0.06470;
19:16:53.284,-1.01660,-0.14917,-0.00903;
19:16:53.294,-1.03027,-0.14795,0.03638;
19:16:53.304,-1.03638,-0.11719,0.05225;
19:16:53.314,-1.04761,-0.08911,0.04541;
19:16:53.324,-1.06763,-0.05933,0.02637;
19:16:53.334,-1.07471,-0.03418,-0.00122;
19:16:53.344,-1.06958,-0.05225,-0.01465;
19:16:53.354,-1.04712,-0.07007,-0.02197;
19:16:53.364,-1.01611,-0.06201,-0.04688;
19:16:53.374,-0.99658,-0.05176,-0.06763;
19:16:53.384,-0.97583,-0.07397,-0.07813;
19:16:53.394,-0.97168,-0.09790,-0.09009;
19:16:53.404,-0.97314,-0.09082,-0.10107;
19:16:53.414,-0.97412,-0.07178,-0.11768;
19:16:53.424,-0.99243,-0.05957,-0.10571;
19:16:53.434,-1.00317,-0.07788,-0.06519;
19:16:53.444,-1.00366,-0.10010,-0.03809;
19:16:53.454,-1.00293,-0.08472,-0.04004;
19:16:53.464,-0.99829,-0.07715,-0.04590;
19:16:53.474,-0.99902,-0.08813,-0.04688;
19:16:53.484,-1.00342,-0.08594,-0.05957;
19:16:53.494,-1.00439,-0.07617,-0.06665;
19:16:53.504,-0.99902,-0.06641,-0.05981;
19:16:53.514,-0.99365,-0.06812,-0.06689;
19:16:53.524,-0.99023,-0.06055,-0.08252;
19:16:53.534,-0.99854,-0.05811,-0.09326;
19:16:53.544,-1.01001,-0.06641,-0.08594;
19:16:53.554,-0.99854,-0.04565,-0.07202;
19:16:53.564,-0.99609,-0.04346,-0.07886;
19:16:53.574,-0.99805,-0.04395,-0.08521;
19:16:53.584,-1.00391,-0.05103,-0.08618;
19:16:53.594,-1.00757,-0.04639,-0.08130;
19:16:53.604,-1.01050,-0.04688,-0.07764;
19:16:53.614,-1.00317,-0.04932,-0.07861;
19:16:53.624,-0.99341,-0.05493,-0.07031;
19:16:53.634,-0.98608,-0.06934,-0.06274;
19:16:53.644,-0.98560,-0.07202,-0.06543;
19:16:53.654,-0.99072,-0.07104,-0.06714;
19:16:53.664,-0.98950,-0.07056,-0.06592;
19:16:53.674,-0.99609,-0.05835,-0.06641;
19:16:53.684,-1.00171,-0.05566,-0.06860;
19:16:53.694,-1.00415,-0.05933,-0.06323;
19:16:53.704,-1.00342,-0.06323,-0.05371;
19:16:53.714,-1.00195,-0.06006,-0.05737;
19:16:53.724,-1.00195,-0.05786,-0.06763;
19:16:53.734,-1.00122,-0.06055,-0.06616;
19:16:53.744,-1.01001,-0.06763,-0.05396;
19:16:53.754,-1.00977,-0.06763,-0.05176;
19:16:53.764,-1.00806,-0.07202,-0.05078;
19:16:53.774,-1.00098,-0.07153,-0.05688;
19:16:53.784,-0.99097,-0.07104,-0.06396;
19:16:53.794,-0.98315,-0.07275,-0.06567;
19:16:53.804,-0.98022,-0.06958,-0.06665;
19:16:53.814,-0.98633,-0.06006,-0.07080;
19:16:53.824,-1.00293,-0.05664,-0.06909;
19:16:53.834,-1.00952,-0.06763,-0.06567;
19:16:53.844,-1.01147,-0.06836,-0.06128;
19:16:53.854,-1.00757,-0.06372,-0.06641;
19:16:53.864,-1.00171,-0.07300,-0.07056;
19:16:53.874,-0.99561,-0.07715,-0.05835;
19:16:53.884,-0.98901,-0.08813,-0.06299;
19:16:53.894,-0.98755,-0.07031,-0.07031;
19:16:53.904,-1.01563,-0.08130,-0.05396;
19:16:53.914,-1.01221,-0.09033,-0.04175;
19:16:53.924,-0.99951,-0.09399,-0.05249;
19:16:53.934,-0.98901,-0.08887,-0.04956;
19:16:53.944,-0.98560,-0.08228,-0.06812;
19:16:53.954,-0.98462,-0.07275,-0.07739;
19:16:53.964,-0.98560,-0.06519,-0.08032;
19:16:53.974,-0.99585,-0.05811,-0.07593;
19:16:53.984,-1.00562,-0.05615,-0.07227;
19:16:53.994,-1.01172,-0.05542,-0.05908;
19:16:54.004,-1.01563,-0.05664,-0.05322;
19:16:54.014,-1.01196,-0.06421,-0.04907;
19:16:54.024,-1.00879,-0.06299,-0.04517;
19:16:54.034,-1.00098,-0.06226,-0.04834;
19:16:54.044,-0.99316,-0.06372,-0.05273;
19:16:54.054,-0.98901,-0.06494,-0.06152;
19:16:54.064,-0.98486,-0.06860,-0.06348;
19:16:54.074,-0.98804,-0.06494,-0.06470;
19:16:54.084,-0.99463,-0.05835,-0.06323;
19:16:54.094,-1.00317,-0.05859,-0.05566;
19:16:54.104,-1.00928,-0.06689,-0.04517;
19:16:54.114,-1.01099,-0.07275,-0.03540;
19:16:54.124,-1.00830,-0.07642,-0.03613;
19:16:54.134,-1.00098,-0.08154,-0.03931;
19:16:54.144,-0.99438,-0.08716,-0.03687;
19:16:54.154,-0.99023,-0.08911,-0.03784;
19:16:54.164,-0.99854,-0.08472,-0.04102;
19:16:54.174,-1.00000,-0.08203,-0.03857;
19:16:54.184,-0.99072,-0.08862,-0.03247;
19:16:54.194,-0.98926,-0.08496,-0.03296;
19:16:54.204,-0.99414,-0.07275,-0.04321;
19:16:54.214,-0.99585,-0.07349,-0.04150;
19:16:54.224,-0.99976,-0.06494,-0.03931;
19:16:54.234,-1.00977,-0.06738,-0.04517;
19:16:54.244,-1.01099,-0.07495,-0.03271;
19:16:54.254,-1.01123,-0.06836,-0.02271;
19:16:54.264,-1.01050,-0.07153,-0.02441;
19:16:54.274,-1.00342,-0.07056,-0.02417;
19:16:54.284,-1.00342,-0.06396,-0.02759;
19:16:54.294,-1.00195,-0.06641,-0.03052;
19:16:54.304,-0.99512,-0.06787,-0.02881;
19:16:54.314,-0.98584,-0.07422,-0.03223;
19:16:54.324,-0.97559,-0.07031,-0.04077;
19:16:54.334,-0.97974,-0.05273,-0.04663;
19:16:54.344,-0.99487,-0.04810,-0.04834;
19:16:54.354,-1.00342,-0.05005,-0.04150;
19:16:54.364,-1.01001,-0.04614,-0.03247;
19:16:54.374,-1.01294,-0.05615,-0.02832;
19:16:54.384,-1.01172,-0.07642,-0.02148;
19:16:54.394,-1.01123,-0.08716,-0.00488;
19:16:54.404,-1.00146,-0.09448,-0.00244;
19:16:54.414,-0.98999,-0.09595,-0.01392;
19:16:54.424,-0.98608,-0.09375,-0.02026;
19:16:54.434,-0.97729,-0.09570,-0.02246;
19:16:54.444,-0.97046,-0.09155,-0.03149;
19:16:54.454,-0.97095,-0.06909,-0.04370;
19:16:54.464,-0.98193,-0.02637,-0.05469;
19:16:54.474,-1.01392,0.02319,-0.05396;
19:16:54.484,-1.04150,0.00757,-0.03198;
19:16:54.494,-1.05151,-0.04028,-0.00391;
19:16:54.504,-1.04102,-0.04834,0.00269;
19:16:54.514,-1.02026,-0.04199,-0.01025;
19:16:54.524,-1.00513,-0.04541,-0.01245;
19:16:54.534,-0.99731,-0.05542,-0.01563;
19:16:54.544,-0.99219,-0.05420,-0.02197;
19:16:54.554,-0.99023,-0.05151,-0.03027;
19:16:54.564,-0.98877,-0.04150,-0.03296;
19:16:54.574,-0.99316,-0.01147,-0.03296;
19:16:54.584,-1.00610,0.02637,-0.03052;
19:16:54.594,-1.02905,0.02051,-0.01880;
19:16:54.604,-1.04175,-0.04663,0.00513;
19:16:54.614,-1.02563,-0.09009,0.01733;
19:16:54.624,-1.01221,-0.07959,-0.00122;
19:16:54.634,-0.99707,-0.06689,-0.01587;
19:16:54.644,-0.98560,-0.06006,-0.02246;
19:16:54.654,-0.99121,-0.04883,-0.03003;
19:16:54.664,-0.99463,-0.04028,-0.03198;
19:16:54.674,-0.99780,-0.03418,-0.03174;
19:16:54.684,-1.00415,-0.03027,-0.02881;
19:16:54.694,-1.00732,-0.02710,-0.01831;
19:16:54.704,-1.01147,-0.02246,-0.01563;
19:16:54.714,-1.01636,-0.02637,-0.01001;
19:16:54.724,-1.01440,-0.04736,-0.00659;
19:16:54.734,-1.00977,-0.05835,-0.01318;
19:16:54.744,-1.00464,-0.06079,-0.01587;
19:16:54.754,-0.99878,-0.05688,-0.02148;
19:16:54.764,-0.99585,-0.04980,-0.02710;
19:16:54.774,-0.99072,-0.04736,-0.02954;
19:16:54.784,-0.99414,-0.03979,-0.02783;
19:16:54.794,-1.00122,-0.03613,-0.01636;
19:16:54.804,-1.00562,-0.04443,-0.00903;
19:16:54.814,-1.01172,-0.03809,-0.01294;
19:16:54.824,-1.01514,-0.03052,-0.00879;
19:16:54.834,-1.01392,-0.05225,-0.00220;
19:16:54.844,-1.01196,-0.05737,-0.00537;
19:16:54.854,-1.00854,-0.05981,-0.01074;
19:16:54.864,-1.00098,-0.06152,-0.01465;
19:16:54.874,-0.99634,-0.05640,-0.02637;
19:16:54.884,-0.99585,-0.06177,-0.02515;
19:16:54.894,-0.99756,-0.06177,-0.01465;
19:16:54.904,-0.99658,-0.05420,-0.01489;
19:16:54.914,-1.00146,-0.03979,-0.01733;
19:16:54.924,-1.00708,-0.03833,-0.01318;
19:16:54.934,-1.01001,-0.04321,-0.00757;
19:16:54.944,-1.01245,-0.04199,-0.01294;
19:16:54.954,-1.01050,-0.05176,-0.01294;
19:16:54.964,-1.00659,-0.06372,-0.00293;
19:16:54.974,-1.00220,-0.06421,-0.00537;
19:16:54.984,-1.00195,-0.05981,-0.01221;
19:16:54.994,-1.00049,-0.05957,-0.01074;
19:16:55.004,-0.99805,-0.05811,-0.01270;
19:16:55.014,-0.99902,-0.05493,-0.01758;
19:16:55.024,-1.00073,-0.05518,-0.01245;
19:16:55.034,-1.00439,-0.05151,-0.00854;
19:16:55.044,-1.00757,-0.05737,-0.00903;
19:16:55.054,-1.00806,-0.06470,-0.00171;
19:16:55.064,-1.00977,-0.06055,0.00122;
19:16:55.074,-1.00610,-0.06177,-0.00439;
19:16:55.084,-1.00122,-0.05908,-0.00830;
19:16:55.094,-1.00415,-0.06299,-0.00513;
19:16:55.104,-1.00317,-0.06055,-0.00415;
19:16:55.114,-1.00415,-0.05029,-0.01123;
19:16:55.124,-1.00513,-0.05518,-0.01074;
19:16:55.134,-1.00928,-0.05884,-0.00439;
19:16:55.144,-1.00366,-0.06885,-0.00220;
19:16:55.154,-0.99902,-0.07178,-0.00146;
19:16:55.164,-0.99683,-0.07642,-0.00562;
19:16:55.174,-0.99829,-0.08130,-0.00513;
19:16:55.184,-0.99805,-0.07275,-0.00830;
19:16:55.194,-1.00049,-0.05933,-0.01270;
19:16:55.204,-1.00586,-0.06396,-0.00781;
19:16:55.214,-1.00781,-0.07178,-0.00537;
19:16:55.224,-1.00830,-0.07666,-0.00391;
19:16:55.234,-1.00635,-0.07788,0.00586;
19:16:55.244,-1.00537,-0.07715,0.00513;
19:16:55.254,-1.00391,-0.07544,0.00073;
19:16:55.264,-1.00342,-0.07324,-0.00293;
19:16:55.274,-1.00146,-0.07446,-0.00952;
19:16:55.284,-1.00049,-0.07178,-0.02051;
19:16:55.294,-0.99951,-0.06982,-0.02466;
19:16:55.304,-0.99854,-0.06982,-0.02344;
19:16:55.314,-1.00000,-0.06641,-0.01733;
19:16:55.324,-1.00122,-0.06665,-0.00977;
19:16:55.334,-1.00415,-0.07227,-0.01099;
19:16:55.344,-1.00317,-0.06958,-0.00757;
19:16:55.354,-1.00439,-0.06812,-0.00928;
19:16:55.364,-1.00488,-0.07520,-0.01465;
19:16:55.374,-1.00098,-0.07861,-0.00903;
19:16:55.384,-0.99951,-0.07202,-0.00488;
19:16:55.394,-1.00195,-0.06714,-0.00439;
19:16:55.404,-1.00513,-0.06812,-0.00879;
19:16:55.414,-1.01147,-0.07251,-0.00732;
19:16:55.424,-1.01196,-0.08643,0.00244;
19:16:55.434,-1.00977,-0.09424,0.00684;
19:16:55.444,-1.00391,-0.09058,0.00293;
19:16:55.454,-0.99805,-0.08740,0.00415;
19:16:55.464,-0.99854,-0.08643,0.00952;
19:16:55.474,-0.99927,-0.08496,0.00562;
19:16:55.484,-1.00049,-0.08569,-0.00293;
19:16:55.494,-1.00195,-0.08765,-0.00928;
19:16:55.504,-1.00562,-0.08960,-0.00830;
19:16:55.514,-1.00391,-0.08105,-0.00732;
19:16:55.524,-1.00415,-0.07422,-0.00488;
19:16:55.534,-1.00293,-0.07593,0.00000;
19:16:55.544,-1.00342,-0.07959,0.00977;
19:16:55.554,-0.99927,-0.08423,0.01221;
19:16:55.564,-0.99487,-0.08618,0.00098;
19:16:55.574,-1.00098,-0.08789,0.00171;
19:16:55.584,-1.00757,-0.08203,0.00732;
19:16:55.594,-1.01489,-0.07715,0.00464;
19:16:55.604,-1.01685,-0.07349,-0.00415;
19:16:55.614,-1.01440,-0.06714,-0.00635;
19:16:55.624,-1.00903,-0.06543,-0.00439;
19:16:55.634,-1.00488,-0.06616,-0.00342;
19:16:55.644,-1.00684,-0.06958,-0.00342;
19:16:55.654,-1.01099,-0.07324,0.00000;
19:16:55.664,-1.01880,-0.07349,0.00537;
19:16:55.674,-1.02734,-0.06445,-0.00220;
19:16:55.684,-1.03125,-0.05615,-0.01855;
19:16:55.694,-1.02979,-0.05420,-0.02881;
19:16:55.704,-1.03125,-0.04883,-0.02808;
