time,acc_x,acc_y,acc_z
19:36:45.077,0.76392,-0.07495,-0.69971;
19:36:45.087,0.78979,-0.01465,-0.74268;
19:36:45.097,0.85962,0.05542,-0.78003;
19:36:45.107,0.90137,0.09888,-0.81128;
19:36:45.117,0.88989,0.09888,-0.81982;
19:36:45.127,0.60229,-0.11279,-0.70386;
19:36:45.137,0.45264,0.01563,-0.67896;
19:36:45.147,1.05054,0.47632,-0.86426;
19:36:45.157,0.96582,0.36987,-0.72095;
19:36:45.167,0.92700,0.34326,-0.69971;
19:36:45.177,0.91577,0.32495,-0.71802;
19:36:45.187,0.91821,0.29077,-0.73706;
19:36:45.197,0.89038,0.21167,-0.73999;
19:36:45.207,0.81055,0.06885,-0.73462;
19:36:45.217,0.72339,-0.06714,-0.70605;
19:36:45.227,0.73145,-0.03149,-0.72974;
19:36:45.237,0.83276,-0.00952,-0.74536;
19:36:45.247,0.93433,-0.03760,-0.75269;
19:36:45.257,1.02173,-0.13062,-0.72046;
19:36:45.267,1.06738,-0.25537,-0.66992;
19:36:45.277,1.05225,-0.29565,-0.65796;
19:36:45.287,0.99658,-0.25586,-0.65479;
19:36:45.297,0.94067,-0.22656,-0.61182;
19:36:45.307,0.90381,-0.23730,-0.55591;
19:36:45.317,0.89136,-0.29639,-0.49512;
19:36:45.327,0.88086,-0.32764,-0.43384;
19:36:45.337,0.86426,-0.28613,-0.37842;
19:36:45.347,0.87891,-0.23755,-0.35474;
19:36:45.357,0.90137,-0.21265,-0.35132;
19:36:45.367,0.91357,-0.19238,-0.34253;
19:36:45.377,0.87573,-0.05591,-0.35425;
19:36:45.387,0.91162,-0.03369,-0.35449;
19:36:45.397,0.92578,0.00977,-0.35693;
19:36:45.407,0.92627,0.04736,-0.38208;
19:36:45.417,0.90259,0.07324,-0.40747;
19:36:45.427,0.84277,0.07275,-0.43604;
19:36:45.437,0.76196,0.03662,-0.44849;
19:36:45.447,0.67261,-0.00830,-0.43945;
19:36:45.457,0.59717,-0.02930,-0.40942;
19:36:45.467,0.56689,-0.02661,-0.37891;
19:36:45.477,0.57495,0.01196,-0.36841;
19:36:45.487,0.61841,0.06689,-0.35303;
19:36:45.497,0.68018,0.09326,-0.30640;
19:36:45.507,0.76221,0.11865,-0.27490;
19:36:45.517,0.84570,0.18433,-0.28540;
19:36:45.527,0.91211,0.37402,-0.27905;
19:36:45.537,0.88232,0.42114,-0.23901;
19:36:45.547,0.82568,0.46777,-0.18164;
19:36:45.557,0.77124,0.52759,-0.12500;
19:36:45.567,0.74316,0.63037,-0.11548;
19:36:45.577,0.73218,0.69409,-0.13892;
19:36:45.587,0.75195,0.70044,-0.14429;
19:36:45.597,0.77393,0.69971,-0.14111;
19:36:45.607,0.80884,0.71387,-0.15796;
19:36:45.617,0.86694,0.73169,-0.24121;
19:36:45.627,0.87036,0.73413,-0.30957;
19:36:45.637,0.88745,0.68848,-0.33984;
19:36:45.647,0.91016,0.66064,-0.25903;
19:36:45.657,1.07471,0.77612,-0.21240;
19:36:45.667,1.15723,0.71240,-0.29297;
19:36:45.677,1.18286,0.65918,-0.37378;
19:36:45.687,1.17847,0.76123,-0.43848;
19:36:45.697,1.16553,0.89600,-0.42969;
19:36:45.707,1.06274,0.72241,-0.23975;
19:36:45.717,1.01318,0.65405,-0.19360;
19:36:45.727,1.00488,0.64893,-0.20605;
19:36:45.737,0.98096,0.74023,-0.24512;
19:36:45.747,0.96216,0.79614,-0.26465;
19:36:45.757,0.93823,0.78467,-0.22803;
19:36:45.767,0.91602,0.83911,-0.17505;
19:36:45.777,0.90576,0.86743,-0.14966;
19:36:45.787,0.91699,0.80151,-0.13110;
19:36:45.797,0.92310,0.70679,-0.11035;
19:36:45.807,0.90991,0.69751,-0.08936;
19:36:45.817,0.90137,0.76172,-0.08569;
19:36:45.827,0.94336,0.70288,-0.08081;
19:36:45.837,0.96191,0.64893,-0.08423;
19:36:45.847,0.94214,0.66797,-0.08740;
19:36:45.857,0.88281,0.66406,-0.08740;
19:36:45.867,0.82617,0.64453,-0.07373;
19:36:45.877,0.79956,0.67090,-0.08203;
19:36:45.887,0.78857,0.71631,-0.08618;
19:36:45.897,0.77856,0.73706,-0.08130;
19:36:45.907,0.79858,0.71509,-0.08521;
19:36:45.917,0.83618,0.66064,-0.09375;
19:36:45.927,0.84302,0.63428,-0.10107;
19:36:45.937,0.82910,0.60889,-0.09717;
19:36:45.947,0.80786,0.57788,-0.08447;
19:36:45.957,0.79248,0.55762,-0.09375;
19:36:45.967,0.78882,0.54126,-0.13159;
19:36:45.977,0.78662,0.64404,-0.13892;
19:36:45.987,0.77344,0.71216,-0.07739;
19:36:45.997,0.77148,0.75952,-0.04736;
19:36:46.007,0.79272,0.75757,-0.03735;
19:36:46.017,0.82861,0.71460,-0.02710;
19:36:46.027,0.84595,0.64038,-0.00098;
19:36:46.037,0.87378,0.53516,-0.04932;
19:36:46.047,0.84961,0.52881,-0.05786;
19:36:46.057,0.83960,0.54272,-0.06763;
19:36:46.067,0.83984,0.58960,-0.09033;
19:36:46.077,0.84106,0.60376,-0.10400;
19:36:46.087,0.85083,0.56763,-0.11670;
19:36:46.097,0.85815,0.54297,-0.12891;
19:36:46.107,0.84766,0.54468,-0.11694;
19:36:46.117,0.85034,0.56616,-0.10596;
19:36:46.127,0.86450,0.56445,-0.10522;
19:36:46.137,0.88818,0.53101,-0.11353;
19:36:46.147,0.88818,0.50342,-0.14087;
19:36:46.157,0.89014,0.47266,-0.15527;
19:36:46.167,0.88184,0.46631,-0.15234;
19:36:46.177,0.86523,0.49976,-0.15967;
19:36:46.187,0.84888,0.54053,-0.16016;
19:36:46.197,0.85352,0.57959,-0.15771;
19:36:46.207,0.86035,0.59302,-0.13989;
19:36:46.217,0.86426,0.58179,-0.13501;
19:36:46.227,0.87134,0.54297,-0.14966;
19:36:46.237,0.86938,0.51050,-0.15210;
19:36:46.247,0.86621,0.52954,-0.12988;
19:36:46.257,0.86987,0.55762,-0.10889;
19:36:46.267,0.87036,0.58447,-0.08911;
19:36:46.277,0.83374,0.63257,-0.06982;
19:36:46.287,0.81958,0.61548,-0.07642;
19:36:46.297,0.80518,0.58887,-0.09399;
19:36:46.307,0.80029,0.57080,-0.10132;
19:36:46.317,0.80835,0.54810,-0.10400;
19:36:46.327,0.82739,0.54907,-0.09595;
19:36:46.337,0.84473,0.57178,-0.09424;
19:36:46.347,0.85840,0.56152,-0.07642;
19:36:46.357,0.83643,0.59277,-0.04712;
19:36:46.367,0.85229,0.57813,-0.08472;
19:36:46.377,0.85767,0.53882,-0.11792;
19:36:46.387,0.84912,0.52832,-0.13403;
19:36:46.397,0.84619,0.53857,-0.14575;
19:36:46.407,0.84717,0.56909,-0.14453;
19:36:46.417,0.84668,0.59912,-0.13379;
19:36:46.427,0.84668,0.59277,-0.12793;
19:36:46.437,0.84839,0.57837,-0.13257;
19:36:46.447,0.85205,0.56934,-0.13745;
19:36:46.457,0.85864,0.55029,-0.14160;
19:36:46.467,0.86230,0.54858,-0.14453;
19:36:46.477,0.85205,0.56519,-0.13574;
19:36:46.487,0.85962,0.57837,-0.09180;
19:36:46.497,0.86377,0.56519,-0.08496;
19:36:46.507,0.87378,0.52734,-0.08667;
19:36:46.517,0.87646,0.50293,-0.10229;
19:36:46.527,0.86328,0.51953,-0.11060;
19:36:46.537,0.83789,0.57959,-0.09814;
19:36:46.547,0.82031,0.61890,-0.08862;
19:36:46.557,0.82275,0.63306,-0.08228;
19:36:46.567,0.83276,0.64355,-0.08154;
19:36:46.577,0.84668,0.62891,-0.09521;
19:36:46.587,0.85278,0.58667,-0.10791;
19:36:46.597,0.84961,0.55737,-0.11279;
19:36:46.607,0.83691,0.55786,-0.11816;
19:36:46.617,0.82568,0.55957,-0.11816;
19:36:46.627,0.82495,0.54492,-0.12280;
19:36:46.637,0.85596,0.53613,-0.13379;
19:36:46.647,0.86230,0.53247,-0.13208;
19:36:46.657,0.85181,0.54419,-0.11963;
19:36:46.667,0.83789,0.56958,-0.10547;
19:36:46.677,0.83252,0.57642,-0.09375;
19:36:46.687,0.85962,0.56104,-0.14014;
19:36:46.697,0.85327,0.56519,-0.10669;
19:36:46.707,0.84741,0.57422,-0.09448;
19:36:46.717,0.83789,0.57324,-0.09717;
19:36:46.727,0.83862,0.56763,-0.10864;
19:36:46.737,0.85034,0.56079,-0.12622;
19:36:46.747,0.85986,0.55322,-0.13696;
19:36:46.757,0.86157,0.54053,-0.13721;
19:36:46.767,0.86084,0.53564,-0.13672;
19:36:46.777,0.85645,0.54150,-0.12500;
19:36:46.787,0.85425,0.54688,-0.11743;
19:36:46.797,0.84546,0.56641,-0.11646;
19:36:46.807,0.82813,0.59302,-0.11621;
19:36:46.817,0.82983,0.58984,-0.12036;
19:36:46.827,0.83545,0.57764,-0.12085;
19:36:46.837,0.84644,0.56689,-0.11938;
19:36:46.847,0.86035,0.54907,-0.11011;
19:36:46.857,0.85889,0.54468,-0.09424;
19:36:46.867,0.84937,0.55762,-0.09058;
19:36:46.877,0.84229,0.57446,-0.10059;
19:36:46.887,0.83594,0.58008,-0.09814;
19:36:46.897,0.83398,0.57446,-0.10010;
19:36:46.907,0.83228,0.57056,-0.10889;
19:36:46.917,0.82715,0.57788,-0.10986;
19:36:46.927,0.82739,0.58228,-0.11572;
19:36:46.937,0.83130,0.56934,-0.12231;
19:36:46.947,0.83057,0.55981,-0.12158;
19:36:46.957,0.83008,0.56836,-0.11987;
19:36:46.967,0.83276,0.58105,-0.12329;
19:36:46.977,0.83667,0.58105,-0.11890;
19:36:46.987,0.83521,0.57617,-0.11499;
19:36:46.997,0.84033,0.57910,-0.11279;
19:36:47.007,0.85132,0.57471,-0.10425;
19:36:47.017,0.85596,0.53613,-0.10327;
19:36:47.027,0.83887,0.59082,-0.08936;
19:36:47.037,0.84351,0.61133,-0.08398;
19:36:47.047,0.85742,0.61353,-0.09082;
19:36:47.057,0.86426,0.60083,-0.09424;
19:36:47.067,0.85962,0.58374,-0.10449;
19:36:47.077,0.84985,0.56714,-0.11304;
19:36:47.087,0.83862,0.56909,-0.11499;
19:36:47.097,0.83545,0.57227,-0.11768;
19:36:47.107,0.83667,0.57275,-0.11694;
19:36:47.117,0.84082,0.57813,-0.12280;
19:36:47.127,0.84473,0.57153,-0.12720;
19:36:47.137,0.84741,0.56421,-0.13330;
19:36:47.147,0.84741,0.56274,-0.13330;
19:36:47.157,0.85156,0.55396,-0.12061;
19:36:47.167,0.85010,0.54761,-0.09961;
19:36:47.177,0.85889,0.57324,-0.10205;
19:36:47.187,0.86133,0.57178,-0.10522;
19:36:47.197,0.86255,0.56738,-0.10962;
19:36:47.207,0.85840,0.56714,-0.11670;
19:36:47.217,0.84692,0.56909,-0.12109;
19:36:47.227,0.84009,0.57422,-0.13013;
19:36:47.237,0.83887,0.57642,-0.13843;
19:36:47.247,0.83423,0.57861,-0.13574;
19:36:47.257,0.83667,0.57837,-0.12671;
19:36:47.267,0.84351,0.57886,-0.11963;
19:36:47.277,0.84619,0.57690,-0.12036;
19:36:47.287,0.84741,0.57202,-0.11646;
19:36:47.297,0.84497,0.56421,-0.10254;
19:36:47.307,0.85059,0.54883,-0.09741;
19:36:47.317,0.85791,0.53198,-0.09131;
19:36:47.327,0.85913,0.51929,-0.08960;
19:36:47.337,0.86670,0.51025,-0.09229;
19:36:47.347,0.87573,0.49878,-0.08618;
19:36:47.357,0.87109,0.52197,-0.08325;
19:36:47.367,0.87793,0.52612,-0.03906;
19:36:47.377,0.87988,0.52588,-0.01196;
19:36:47.387,0.87646,0.53735,-0.00732;
19:36:47.397,0.87061,0.55591,-0.02661;
19:36:47.407,0.86987,0.58228,-0.06445;
19:36:47.417,0.86597,0.59277,-0.10083;
19:36:47.427,0.85620,0.58911,-0.07642;
19:36:47.437,0.85547,0.55518,-0.04443;
19:36:47.447,0.85254,0.52173,-0.03882;
19:36:47.457,0.83179,0.50293,-0.07764;
19:36:47.467,0.82104,0.47705,-0.14404;
19:36:47.477,0.82764,0.48975,-0.21997;
19:36:47.487,0.83203,0.49780,-0.27661;
19:36:47.497,0.82251,0.44702,-0.27295;
19:36:47.507,0.81519,0.44019,-0.25146;
19:36:47.517,0.81592,0.45264,-0.25977;
19:36:47.527,0.81421,0.48682,-0.29370;
19:36:47.537,0.82397,0.51831,-0.32739;
19:36:47.547,0.83643,0.55005,-0.35107;
19:36:47.557,0.83423,0.61230,-0.38550;
19:36:47.567,0.83228,0.61206,-0.38647;
19:36:47.577,0.83105,0.57471,-0.37109;
19:36:47.587,0.83276,0.56519,-0.36694;
19:36:47.597,0.83667,0.55273,-0.36304;
19:36:47.607,0.83691,0.55469,-0.35498;
19:36:47.617,0.84521,0.57129,-0.33276;
19:36:47.627,0.84399,0.56689,-0.30811;
19:36:47.637,0.84302,0.54614,-0.29346;
19:36:47.647,0.86133,0.51929,-0.32935;
19:36:47.657,0.87402,0.48047,-0.34619;
19:36:47.667,0.87817,0.45532,-0.34131;
19:36:47.677,0.88501,0.47485,-0.28101;
19:36:47.687,0.88916,0.50220,-0.28442;
19:36:47.697,0.89136,0.47363,-0.27563;
19:36:47.707,0.88794,0.46313,-0.27002;
19:36:47.717,0.88745,0.46606,-0.26221;
19:36:47.727,0.88477,0.46729,-0.24390;
19:36:47.737,0.87598,0.46875,-0.24121;
19:36:47.747,0.87622,0.45264,-0.25415;
19:36:47.757,0.87207,0.45752,-0.27222;
19:36:47.767,0.86450,0.47168,-0.28491;
19:36:47.777,0.86328,0.47607,-0.29126;
19:36:47.787,0.86328,0.49048,-0.29834;
19:36:47.797,0.86865,0.48633,-0.28467;
19:36:47.807,0.86890,0.47729,-0.27173;
19:36:47.817,0.87207,0.48486,-0.28076;
19:36:47.827,0.87646,0.47876,-0.28247;
19:36:47.837,0.87183,0.47949,-0.28516;
19:36:47.847,0.87012,0.48438,-0.28857;
19:36:47.857,0.86963,0.48438,-0.28662;
19:36:47.867,0.87207,0.48706,-0.28784;
19:36:47.877,0.87183,0.48413,-0.28198;
19:36:47.887,0.86206,0.48145,-0.27930;
19:36:47.897,0.85132,0.48657,-0.28394;
19:36:47.907,0.84888,0.47974,-0.29321;
19:36:47.917,0.86108,0.46411,-0.30615;
19:36:47.927,0.87280,0.45801,-0.31787;
19:36:47.937,0.87891,0.44434,-0.31860;
19:36:47.947,0.88501,0.43164,-0.31128;
19:36:47.957,0.88599,0.44531,-0.30444;
19:36:47.967,0.88037,0.46826,-0.30420;
19:36:47.977,0.87915,0.46680,-0.30200;
19:36:47.987,0.87231,0.45386,-0.29395;
19:36:47.997,0.86768,0.45264,-0.30200;
19:36:48.007,0.87964,0.45093,-0.30127;
19:36:48.017,0.87524,0.43140,-0.28516;
19:36:48.027,0.86792,0.46021,-0.27539;
19:36:48.037,0.87012,0.45313,-0.27856;
19:36:48.047,0.87817,0.46216,-0.28857;
19:36:48.057,0.88696,0.46118,-0.28833;
19:36:48.067,0.88452,0.45435,-0.27954;
19:36:48.077,0.87842,0.46313,-0.27393;
19:36:48.087,0.87793,0.46899,-0.28174;
19:36:48.097,0.88037,0.44922,-0.27930;
19:36:48.107,0.87549,0.44873,-0.27612;
19:36:48.117,0.87183,0.45605,-0.27930;
19:36:48.127,0.86768,0.45483,-0.27905;
19:36:48.137,0.86572,0.45776,-0.28857;
19:36:48.147,0.86841,0.45703,-0.28809;
19:36:48.157,0.86475,0.45850,-0.29004;
19:36:48.167,0.86719,0.45923,-0.30005;
19:36:48.177,0.87207,0.45801,-0.30786;
19:36:48.187,0.87451,0.46729,-0.31519;
19:36:48.197,0.87573,0.47485,-0.31714;
19:36:48.207,0.87622,0.47461,-0.31494;
19:36:48.217,0.87891,0.47363,-0.30664;
19:36:48.227,0.87988,0.46704,-0.30298;
19:36:48.237,0.88062,0.46045,-0.30518;
19:36:48.247,0.87891,0.45972,-0.30420;
19:36:48.257,0.87671,0.45654,-0.30298;
19:36:48.267,0.87646,0.44556,-0.29785;
19:36:48.277,0.87134,0.43945,-0.28394;
19:36:48.287,0.86597,0.44800,-0.27881;
19:36:48.297,0.87329,0.44824,-0.27808;
19:36:48.307,0.87500,0.44360,-0.27246;
19:36:48.317,0.87793,0.45166,-0.27466;
19:36:48.327,0.88037,0.46436,-0.27881;
19:36:48.337,0.87842,0.47681,-0.28784;
19:36:48.347,0.88086,0.48071,-0.29028;
19:36:48.357,0.87988,0.47559,-0.28369;
19:36:48.367,0.87842,0.46509,-0.28345;
19:36:48.377,0.87134,0.44800,-0.26514;
19:36:48.387,0.86938,0.47949,-0.28320;
19:36:48.397,0.87402,0.48096,-0.29468;
19:36:48.407,0.87915,0.48071,-0.29492;
19:36:48.417,0.88550,0.47852,-0.28857;
19:36:48.427,0.88721,0.47534,-0.27490;
19:36:48.437,0.88208,0.46826,-0.26001;
19:36:48.447,0.87256,0.47168,-0.25830;
19:36:48.457,0.86841,0.48535,-0.27515;
19:36:48.467,0.87207,0.47974,-0.30103;
19:36:48.477,0.87280,0.45850,-0.30249;
19:36:48.487,0.86499,0.45483,-0.28589;
19:36:48.497,0.85986,0.46289,-0.27173;
19:36:48.507,0.86841,0.46313,-0.26270;
19:36:48.517,0.86987,0.45801,-0.26489;
19:36:48.527,0.87036,0.46729,-0.28052;
19:36:48.537,0.88135,0.47363,-0.29419;
19:36:48.547,0.88477,0.46777,-0.29932;
19:36:48.557,0.88208,0.47412,-0.29370;
19:36:48.567,0.88232,0.48218,-0.28589;
19:36:48.577,0.88672,0.47583,-0.27734;
19:36:48.587,0.88721,0.47021,-0.27539;
19:36:48.597,0.88477,0.47339,-0.28467;
19:36:48.607,0.88330,0.47266,-0.29077;
19:36:48.617,0.87817,0.47461,-0.29541;
19:36:48.627,0.87549,0.47925,-0.29102;
19:36:48.637,0.87036,0.47754,-0.28125;
19:36:48.647,0.86743,0.47900,-0.27734;
19:36:48.657,0.86890,0.47412,-0.27466;
19:36:48.667,0.87280,0.46875,-0.28271;
19:36:48.677,0.87500,0.47632,-0.29810;
19:36:48.687,0.87671,0.47852,-0.30566;
19:36:48.697,0.88184,0.47363,-0.30005;
19:36:48.707,0.88818,0.47925,-0.27856;
19:36:48.717,0.87769,0.46606,-0.27344;
19:36:48.727,0.86792,0.45361,-0.27881;
19:36:48.737,0.86938,0.44531,-0.27905;
19:36:48.747,0.86938,0.43970,-0.27441;
19:36:48.757,0.87061,0.43994,-0.27002;
19:36:48.767,0.87573,0.44385,-0.26733;
19:36:48.777,0.88208,0.44604,-0.26831;
19:36:48.787,0.88550,0.44702,-0.27173;
19:36:48.797,0.88550,0.45020,-0.27344;
19:36:48.807,0.88745,0.45972,-0.27173;
19:36:48.817,0.88989,0.46826,-0.27808;
19:36:48.827,0.88989,0.47217,-0.28442;
19:36:48.837,0.88696,0.47705,-0.28198;
19:36:48.847,0.88184,0.48096,-0.28027;
19:36:48.857,0.87598,0.48047,-0.28149;
19:36:48.867,0.87476,0.47827,-0.28149;
19:36:48.877,0.86816,0.47314,-0.28052;
19:36:48.887,0.86572,0.47119,-0.28613;
19:36:48.897,0.86792,0.47290,-0.28564;
19:36:48.907,0.86694,0.47168,-0.28638;
19:36:48.917,0.86523,0.46631,-0.28076;
19:36:48.927,0.86499,0.46118,-0.27905;
19:36:48.937,0.87183,0.46851,-0.28369;
19:36:48.947,0.87866,0.46680,-0.28833;
19:36:48.957,0.88477,0.45972,-0.29932;
19:36:48.967,0.88574,0.46313,-0.30054;
19:36:48.977,0.88306,0.46558,-0.30249;
19:36:48.987,0.88135,0.46094,-0.30200;
19:36:48.997,0.87695,0.45508,-0.29395;
19:36:49.007,0.86865,0.45264,-0.28540;
19:36:49.017,0.86230,0.44849,-0.27612;
19:36:49.027,0.86206,0.44336,-0.27368;
19:36:49.037,0.86011,0.43872,-0.27710;
19:36:49.047,0.85986,0.44214,-0.27637;
19:36:49.057,0.86157,0.44702,-0.27856;
19:36:49.067,0.86743,0.47070,-0.28369;
19:36:49.077,0.87256,0.47803,-0.27515;
19:36:49.087,0.87280,0.47656,-0.27344;
19:36:49.097,0.87720,0.48145,-0.27466;
19:36:49.107,0.87085,0.48022,-0.27368;
19:36:49.117,0.86646,0.47534,-0.26758;
19:36:49.127,0.86548,0.46753,-0.26245;
19:36:49.137,0.88965,0.47607,-0.30420;
19:36:49.147,0.89160,0.47729,-0.29150;
19:36:49.157,0.88379,0.47559,-0.27808;
19:36:49.167,0.87451,0.47925,-0.27026;
19:36:49.177,0.87280,0.47974,-0.26880;
19:36:49.187,0.86841,0.47314,-0.27490;
19:36:49.197,0.86621,0.47046,-0.28027;
19:36:49.207,0.87085,0.46924,-0.29004;
19:36:49.217,0.87158,0.46680,-0.28833;
19:36:49.227,0.87183,0.46631,-0.28296;
19:36:49.237,0.87378,0.47510,-0.27881;
19:36:49.247,0.87622,0.48584,-0.26831;
19:36:49.257,0.87500,0.48975,-0.26074;
19:36:49.267,0.87842,0.48950,-0.26270;
19:36:49.277,0.87842,0.48804,-0.27026;
19:36:49.287,0.87769,0.48682,-0.27759;
19:36:49.297,0.87817,0.48071,-0.27148;
19:36:49.307,0.87329,0.47241,-0.25879;
19:36:49.317,0.86475,0.47974,-0.25391;
19:36:49.327,0.86938,0.48022,-0.27173;
19:36:49.337,0.87646,0.48242,-0.26416;
19:36:49.347,0.88062,0.48218,-0.26416;
19:36:49.357,0.87891,0.48340,-0.26392;
19:36:49.367,0.87524,0.48438,-0.26660;
19:36:49.377,0.87231,0.49023,-0.27368;
19:36:49.387,0.86987,0.48560,-0.27612;
19:36:49.397,0.86865,0.47729,-0.27539;
19:36:49.407,0.86523,0.47754,-0.27026;
19:36:49.417,0.86182,0.48120,-0.26636;
19:36:49.427,0.85864,0.47705,-0.26270;
19:36:49.437,0.85767,0.47437,-0.26782;
19:36:49.447,0.86108,0.47363,-0.27100;
19:36:49.457,0.85962,0.46826,-0.26538;
19:36:49.467,0.86133,0.47241,-0.26343;
19:36:49.477,0.86084,0.48438,-0.26367;
19:36:49.487,0.86304,0.49512,-0.26880;
19:36:49.497,0.87402,0.49292,-0.27051;
19:36:49.507,0.87817,0.48315,-0.26294;
19:36:49.517,0.87524,0.47949,-0.26050;
19:36:49.527,0.87695,0.48535,-0.26074;
19:36:49.537,0.87769,0.48706,-0.25366;
19:36:49.547,0.87231,0.48511,-0.24805;
19:36:49.557,0.86841,0.48633,-0.24414;
19:36:49.567,0.86548,0.48779,-0.24463;
19:36:49.577,0.86621,0.48486,-0.24683;
19:36:49.587,0.86768,0.47168,-0.24707;
19:36:49.597,0.86621,0.46753,-0.24585;
19:36:49.607,0.86694,0.47363,-0.24561;
19:36:49.617,0.87158,0.47485,-0.24634;
19:36:49.627,0.87402,0.48291,-0.25513;
19:36:49.637,0.87598,0.48950,-0.25928;
19:36:49.647,0.87866,0.48682,-0.25659;
19:36:49.657,0.87646,0.48804,-0.26001;
19:36:49.667,0.88062,0.47632,-0.25781;
19:36:49.677,0.87622,0.48730,-0.26855;
19:36:49.687,0.87256,0.49292,-0.27466;
19:36:49.697,0.87549,0.48926,-0.27441;
19:36:49.707,0.87427,0.48926,-0.27466;
19:36:49.717,0.87036,0.49243,-0.28125;
19:36:49.727,0.87231,0.48975,-0.28516;
19:36:49.737,0.87598,0.49146,-0.28564;
19:36:49.747,0.87793,0.48975,-0.28613;
19:36:49.757,0.87744,0.48755,-0.28174;
19:36:49.767,0.88208,0.49146,-0.27295;
19:36:49.777,0.88110,0.49243,-0.26709;
19:36:49.787,0.87671,0.48877,-0.26270;
19:36:49.797,0.87524,0.48633,-0.26025;
19:36:49.807,0.87158,0.48828,-0.26489;
19:36:49.817,0.86768,0.48462,-0.26733;
19:36:49.827,0.86768,0.48657,-0.27026;
19:36:49.837,0.86621,0.49146,-0.26343;
19:36:49.847,0.86377,0.49194,-0.25903;
19:36:49.857,0.86719,0.49585,-0.26367;
19:36:49.867,0.87061,0.49585,-0.26929;
19:36:49.877,0.87476,0.49292,-0.26636;
19:36:49.887,0.87427,0.48608,-0.26050;
19:36:49.897,0.87207,0.47754,-0.25562;
19:36:49.907,0.86938,0.47705,-0.25317;
19:36:49.917,0.86890,0.47412,-0.25049;
19:36:49.927,0.87183,0.46606,-0.24756;
19:36:49.937,0.87036,0.46582,-0.25098;
19:36:49.947,0.86963,0.46826,-0.25439;
19:36:49.957,0.87085,0.47046,-0.26001;
19:36:49.967,0.87061,0.47046,-0.25952;
19:36:49.977,0.86572,0.47705,-0.26147;
19:36:49.987,0.86768,0.48413,-0.26172;
19:36:49.997,0.87256,0.47632,-0.26367;
19:36:50.007,0.87720,0.47217,-0.27295;
19:36:50.017,0.88110,0.48438,-0.27759;
19:36:50.027,0.87036,0.48389,-0.25513;
19:36:50.037,0.86670,0.47388,-0.26440;
19:36:50.047,0.86743,0.46313,-0.26514;
19:36:50.057,0.86646,0.46924,-0.26489;
19:36:50.067,0.86572,0.48218,-0.26392;
19:36:50.077,0.86963,0.48804,-0.26489;
19:36:50.087,0.87744,0.48389,-0.26294;
19:36:50.097,0.87817,0.47778,-0.25610;
19:36:50.107,0.87964,0.47705,-0.25708;
19:36:50.117,0.88477,0.47852,-0.26245;
19:36:50.127,0.88403,0.48096,-0.26196;
19:36:50.137,0.88721,0.47900,-0.26050;
19:36:50.147,0.88477,0.47046,-0.25537;
19:36:50.157,0.88159,0.46362,-0.25244;
19:36:50.167,0.87573,0.46362,-0.25757;
19:36:50.177,0.86426,0.47412,-0.26318;
19:36:50.187,0.85938,0.47974,-0.26221;
19:36:50.197,0.85352,0.48022,-0.26147;
19:36:50.207,0.85474,0.48779,-0.26929;
19:36:50.217,0.86230,0.49072,-0.27661;
19:36:50.227,0.86743,0.48975,-0.28613;
19:36:50.237,0.87500,0.47827,-0.28369;
19:36:50.247,0.87402,0.47705,-0.28003;
19:36:50.257,0.87280,0.49097,-0.28418;
19:36:50.267,0.87329,0.50244,-0.28491;
19:36:50.277,0.87866,0.49390,-0.27905;
19:36:50.287,0.87671,0.48804,-0.27490;
19:36:50.297,0.88037,0.48096,-0.26099;
19:36:50.307,0.88159,0.46582,-0.25757;
19:36:50.317,0.87402,0.45630,-0.26001;
19:36:50.327,0.86938,0.43311,-0.25366;
19:36:50.337,0.86230,0.42798,-0.25757;
19:36:50.347,0.86206,0.42163,-0.25610;
19:36:50.357,0.86890,0.41016,-0.25342;
19:36:50.367,0.90503,0.41455,-0.29663;
19:36:50.377,0.93237,0.36621,-0.29443;
19:36:50.387,0.94312,0.37207,-0.27026;
19:36:50.397,0.94922,0.39844,-0.25732;
19:36:50.407,0.93896,0.38452,-0.26880;
19:36:50.417,0.93115,0.34399,-0.29712;
19:36:50.427,0.93140,0.34253,-0.31055;
19:36:50.437,0.94409,0.32666,-0.31177;
19:36:50.447,0.94971,0.29370,-0.32056;
19:36:50.457,0.95605,0.29614,-0.34351;
19:36:50.467,0.96802,0.31982,-0.36206;
19:36:50.477,0.96460,0.32324,-0.36011;
19:36:50.487,0.95923,0.31763,-0.35376;
19:36:50.497,0.95850,0.31226,-0.35059;
19:36:50.507,0.94287,0.32690,-0.37671;
19:36:50.517,0.94653,0.34766,-0.42749;
19:36:50.527,0.96118,0.33105,-0.46533;
19:36:50.537,0.96509,0.32007,-0.48242;
19:36:50.547,0.96460,0.32788,-0.48340;
19:36:50.557,0.95483,0.34668,-0.47070;
19:36:50.567,0.93408,0.36230,-0.45410;
19:36:50.577,0.92554,0.37378,-0.46313;
19:36:50.587,0.93579,0.38452,-0.48120;
19:36:50.597,0.93896,0.39331,-0.49976;
19:36:50.607,0.93945,0.40063,-0.52148;
19:36:50.617,0.94043,0.41577,-0.53174;
19:36:50.627,0.94238,0.42920,-0.52197;
19:36:50.637,0.93042,0.44531,-0.50195;
19:36:50.647,0.91479,0.46948,-0.48584;
19:36:50.657,0.91675,0.47485,-0.46753;
19:36:50.667,0.92725,0.47119,-0.45850;
19:36:50.677,0.92603,0.50000,-0.45117;
19:36:50.687,0.91187,0.51587,-0.42749;
19:36:50.697,0.90308,0.51123,-0.38867;
19:36:50.707,0.78101,0.49878,-0.37305;
19:36:50.717,0.73608,0.51538,-0.38965;
19:36:50.727,0.71045,0.51294,-0.40308;
19:36:50.737,0.70679,0.50415,-0.41650;
19:36:50.747,0.71875,0.47656,-0.38940;
19:36:50.757,0.69800,0.45532,-0.34692;
19:36:50.767,0.64526,0.47632,-0.32617;
19:36:50.777,0.62793,0.47925,-0.32764;
19:36:50.787,0.63818,0.44141,-0.33521;
19:36:50.797,0.63525,0.40161,-0.33447;
19:36:50.807,0.62769,0.37427,-0.32910;
19:36:50.817,0.63135,0.36304,-0.29761;
19:36:50.827,0.63599,0.35742,-0.25464;
19:36:50.837,0.63745,0.37695,-0.24634;
19:36:50.847,0.65552,0.41528,-0.25879;
19:36:50.857,0.68921,0.45581,-0.30200;
19:36:50.867,0.70190,0.48999,-0.34473;
19:36:50.877,0.69165,0.50073,-0.36206;
19:36:50.887,0.68872,0.48657,-0.36035;
19:36:50.897,0.69531,0.47021,-0.32373;
19:36:50.907,0.70532,0.48877,-0.29932;
19:36:50.917,0.72412,0.51953,-0.30151;
19:36:50.927,0.75513,0.53076,-0.30444;
19:36:50.937,0.77173,0.53369,-0.29761;
19:36:50.947,0.77563,0.53247,-0.28442;
19:36:50.957,0.77808,0.52979,-0.27710;
19:36:50.967,0.78125,0.52783,-0.28442;
19:36:50.977,0.79297,0.53735,-0.30396;
19:36:50.987,0.81836,0.58521,-0.32324;
19:36:50.997,0.83545,0.62500,-0.32568;
19:36:51.007,0.86450,0.59888,-0.30078;
19:36:51.017,0.87476,0.60986,-0.30444;
19:36:51.027,0.88379,0.61182,-0.32007;
19:36:51.037,0.89526,0.53564,-0.30737;
19:36:51.047,0.88696,0.51489,-0.29907;
19:36:51.057,0.87183,0.50464,-0.31396;
19:36:51.067,0.85864,0.48755,-0.33398;
19:36:51.077,0.84888,0.48022,-0.34985;
19:36:51.087,0.84985,0.47803,-0.36621;
19:36:51.097,0.84766,0.48755,-0.37671;
19:36:51.107,0.84888,0.50610,-0.38916;
19:36:51.117,0.86133,0.51831,-0.39063;
19:36:51.127,0.86743,0.53442,-0.39185;
19:36:51.137,0.86743,0.54028,-0.40308;
19:36:51.147,0.86865,0.52930,-0.40308;
19:36:51.157,0.86963,0.51440,-0.39307;
19:36:51.167,0.85767,0.50903,-0.38525;
19:36:51.177,0.84375,0.51489,-0.37598;
19:36:51.187,0.84033,0.52075,-0.37329;
19:36:51.197,0.84082,0.51953,-0.36938;
19:36:51.207,0.83447,0.52344,-0.35791;
19:36:51.217,0.83740,0.53027,-0.35205;
19:36:51.227,0.84399,0.52856,-0.33887;
19:36:51.237,0.84326,0.52319,-0.32397;
19:36:51.247,0.84302,0.50854,-0.30493;
19:36:51.257,0.84155,0.49951,-0.28296;
19:36:51.267,0.84302,0.50342,-0.27905;
19:36:51.277,0.83643,0.51050,-0.29517;
19:36:51.287,0.83154,0.50708,-0.31104;
19:36:51.297,0.83228,0.49609,-0.31592;
19:36:51.307,0.83228,0.49390,-0.31982;
19:36:51.317,0.83740,0.50610,-0.31396;
19:36:51.327,0.83887,0.51440,-0.30762;
19:36:51.337,0.84375,0.51514,-0.31201;
19:36:51.347,0.84326,0.50854,-0.32373;
19:36:51.357,0.83545,0.50684,-0.33032;
19:36:51.367,0.82324,0.49805,-0.33984;
19:36:51.377,0.82910,0.48926,-0.30664;
19:36:51.387,0.83398,0.50049,-0.30518;
19:36:51.397,0.83398,0.50000,-0.31421;
19:36:51.407,0.83472,0.50171,-0.34058;
19:36:51.417,0.83911,0.50732,-0.35425;
19:36:51.427,0.83911,0.50977,-0.33936;
19:36:51.437,0.83081,0.50415,-0.32373;
19:36:51.447,0.82568,0.50708,-0.33032;
19:36:51.457,0.82788,0.51025,-0.33765;
19:36:51.467,0.83154,0.50806,-0.34375;
19:36:51.477,0.83350,0.50024,-0.34302;
19:36:51.487,0.83374,0.49561,-0.33960;
19:36:51.497,0.83228,0.49487,-0.33765;
19:36:51.507,0.83081,0.49854,-0.33838;
19:36:51.517,0.83008,0.50757,-0.34717;
19:36:51.527,0.82983,0.51172,-0.35693;
19:36:51.537,0.83179,0.51245,-0.35278;
19:36:51.547,0.83643,0.51172,-0.34570;
19:36:51.557,0.83740,0.51367,-0.33667;
19:36:51.567,0.82886,0.51929,-0.33179;
19:36:51.577,0.82202,0.51953,-0.34790;
19:36:51.587,0.82178,0.51563,-0.35791;
19:36:51.597,0.82227,0.51880,-0.36157;
19:36:51.607,0.81982,0.52271,-0.36133;
19:36:51.617,0.81982,0.51685,-0.34644;
19:36:51.627,0.83325,0.51050,-0.33643;
19:36:51.637,0.83276,0.50879,-0.34595;
19:36:51.647,0.83789,0.50513,-0.35767;
19:36:51.657,0.84790,0.49414,-0.35718;
19:36:51.667,0.84497,0.47485,-0.33667;
19:36:51.677,0.83984,0.47412,-0.31396;
19:36:51.687,0.84473,0.46924,-0.29150;
19:36:51.697,0.86035,0.45679,-0.26025;
19:36:51.707,0.82837,0.46436,-0.25586;
19:36:51.717,0.84180,0.49585,-0.32446;
19:36:51.727,0.84839,0.49292,-0.33081;
19:36:51.737,0.83936,0.48486,-0.31543;
19:36:51.747,0.83154,0.48218,-0.30273;
19:36:51.757,0.83350,0.48682,-0.30518;
19:36:51.767,0.84058,0.49805,-0.33081;
19:36:51.777,0.84644,0.50269,-0.35400;
19:36:51.787,0.84619,0.50391,-0.36963;
19:36:51.797,0.84790,0.51001,-0.37476;
19:36:51.807,0.84619,0.51318,-0.36768;
19:36:51.817,0.84155,0.51147,-0.36279;
19:36:51.827,0.83789,0.51563,-0.36060;
19:36:51.837,0.83228,0.51587,-0.36499;
19:36:51.847,0.82935,0.51318,-0.37891;
19:36:51.857,0.82617,0.51465,-0.38184;
19:36:51.867,0.81714,0.52002,-0.38086;
19:36:51.877,0.81836,0.52734,-0.38086;
19:36:51.887,0.82349,0.53247,-0.36890;
19:36:51.897,0.82935,0.52441,-0.35742;
19:36:51.907,0.83691,0.51465,-0.34741;
19:36:51.917,0.84253,0.51123,-0.34741;
19:36:51.927,0.84570,0.50757,-0.35059;
19:36:51.937,0.84644,0.51489,-0.34644;
19:36:51.947,0.84668,0.51318,-0.33594;
19:36:51.957,0.84766,0.50610,-0.32080;
19:36:51.967,0.83984,0.52222,-0.30542;
19:36:51.977,0.83447,0.53906,-0.30615;
19:36:51.987,0.84180,0.52637,-0.31323;
19:36:51.997,0.84229,0.51123,-0.30933;
19:36:52.007,0.83618,0.51367,-0.28809;
19:36:52.017,0.83203,0.51880,-0.27271;
19:36:52.027,0.83057,0.51929,-0.28418;
19:36:52.037,0.83398,0.51367,-0.31372;
19:36:52.047,0.84937,0.51099,-0.29102;
19:36:52.057,0.85156,0.51978,-0.27808;
19:36:52.067,0.85303,0.51904,-0.29224;
19:36:52.077,0.84961,0.51318,-0.30298;
19:36:52.087,0.84106,0.51245,-0.30518;
19:36:52.097,0.83203,0.51294,-0.30078;
19:36:52.107,0.82983,0.50610,-0.28687;
19:36:52.117,0.82495,0.50000,-0.27954;
19:36:52.127,0.82129,0.50171,-0.29956;
19:36:52.137,0.82642,0.50684,-0.32373;
19:36:52.147,0.82935,0.50732,-0.34131;
19:36:52.157,0.83447,0.50513,-0.34595;
19:36:52.167,0.84009,0.50610,-0.33911;
19:36:52.177,0.84448,0.50562,-0.33643;
19:36:52.187,0.84326,0.50781,-0.32520;
19:36:52.197,0.84375,0.50928,-0.32007;
19:36:52.207,0.84375,0.50464,-0.31763;
19:36:52.217,0.84180,0.50366,-0.31079;
19:36:52.227,0.84180,0.50610,-0.31738;
19:36:52.237,0.84180,0.50708,-0.32227;
19:36:52.247,0.83521,0.50830,-0.31812;
19:36:52.257,0.83032,0.50732,-0.32495;
19:36:52.267,0.83154,0.50903,-0.33081;
19:36:52.277,0.83325,0.51807,-0.32373;
19:36:52.287,0.84302,0.52490,-0.31299;
19:36:52.297,0.85156,0.52563,-0.30737;
19:36:52.307,0.84863,0.52173,-0.31177;
19:36:52.317,0.84644,0.51685,-0.31421;
19:36:52.327,0.84229,0.51514,-0.31348;
19:36:52.337,0.83594,0.51587,-0.31738;
19:36:52.347,0.83569,0.51147,-0.31958;
19:36:52.357,0.82715,0.50269,-0.30835;
19:36:52.367,0.82227,0.49854,-0.30591;
19:36:52.377,0.83081,0.49951,-0.34399;
19:36:52.387,0.83569,0.50781,-0.35278;
19:36:52.397,0.84009,0.51172,-0.34399;
19:36:52.407,0.84399,0.50952,-0.32983;
19:36:52.417,0.84155,0.50830,-0.32031;
19:36:52.427,0.83740,0.51221,-0.32446;
19:36:52.437,0.83740,0.51221,-0.33472;
19:36:52.447,0.83643,0.51196,-0.34302;
19:36:52.457,0.83765,0.51001,-0.33838;
19:36:52.467,0.83398,0.49512,-0.30908;
19:36:52.477,0.83643,0.46118,-0.24316;
19:36:52.487,0.84351,0.46313,-0.24219;
19:36:52.497,0.83667,0.46143,-0.26904;
19:36:52.507,0.83911,0.45679,-0.27124;
19:36:52.517,0.84033,0.46216,-0.27734;
19:36:52.527,0.82910,0.45850,-0.24902;
19:36:52.537,0.81812,0.47070,-0.23096;
19:36:52.547,0.82959,0.47705,-0.23438;
19:36:52.557,0.85254,0.47632,-0.25293;
19:36:52.567,0.85376,0.48022,-0.26636;
19:36:52.577,0.85547,0.47998,-0.26660;
19:36:52.587,0.85327,0.47510,-0.26563;
19:36:52.597,0.84888,0.47534,-0.26514;
19:36:52.607,0.84766,0.48145,-0.27075;
19:36:52.617,0.84521,0.49121,-0.29004;
19:36:52.627,0.84302,0.49438,-0.31030;
19:36:52.637,0.84302,0.49536,-0.32007;
19:36:52.647,0.84033,0.49878,-0.31958;
19:36:52.657,0.83716,0.50537,-0.32813;
19:36:52.667,0.84277,0.51221,-0.34521;
19:36:52.677,0.84790,0.52100,-0.35107;
19:36:52.687,0.85083,0.52295,-0.34814;
19:36:52.697,0.84741,0.52856,-0.34204;
19:36:52.707,0.84375,0.53564,-0.34180;
19:36:52.717,0.84473,0.53345,-0.34326;
19:36:52.727,0.83179,0.53540,-0.33154;
19:36:52.737,0.83252,0.52344,-0.33447;
19:36:52.747,0.84106,0.51904,-0.33936;
19:36:52.757,0.84497,0.52026,-0.33862;
19:36:52.767,0.84351,0.52100,-0.33887;
19:36:52.777,0.84424,0.52515,-0.33765;
19:36:52.787,0.84399,0.52271,-0.33862;
19:36:52.797,0.86426,0.51563,-0.34619;
19:36:52.807,0.86890,0.51392,-0.33838;
19:36:52.817,0.84961,0.51245,-0.33472;
19:36:52.827,0.84888,0.50269,-0.32886;
19:36:52.837,0.85059,0.49707,-0.32202;
19:36:52.847,0.84766,0.49854,-0.31494;
19:36:52.857,0.84082,0.49829,-0.30054;
19:36:52.867,0.83350,0.49707,-0.29956;
19:36:52.877,0.83862,0.49780,-0.30884;
19:36:52.887,0.84717,0.49561,-0.30688;
19:36:52.897,0.84521,0.49561,-0.30176;
19:36:52.907,0.84570,0.50293,-0.30737;
19:36:52.917,0.84912,0.50244,-0.30103;
19:36:52.927,0.84863,0.49536,-0.29102;
19:36:52.937,0.85059,0.49146,-0.28882;
19:36:52.947,0.84814,0.50073,-0.30103;
19:36:52.957,0.84375,0.50513,-0.30542;
19:36:52.967,0.84277,0.50122,-0.31152;
19:36:52.977,0.84009,0.50171,-0.31885;
19:36:52.987,0.83179,0.50146,-0.31616;
19:36:52.997,0.82690,0.49805,-0.32056;
19:36:53.007,0.82324,0.49463,-0.32690;
19:36:53.017,0.82080,0.49658,-0.32251;
19:36:53.027,0.82422,0.49927,-0.32373;
19:36:53.037,0.82813,0.50562,-0.34497;
19:36:53.047,0.84961,0.51392,-0.35718;
19:36:53.057,0.84668,0.50659,-0.33521;
19:36:53.067,0.84253,0.50195,-0.32910;
19:36:53.077,0.84229,0.49927,-0.32983;
19:36:53.087,0.84619,0.49927,-0.33398;
19:36:53.097,0.84424,0.51099,-0.34033;
19:36:53.107,0.84033,0.52246,-0.34741;
19:36:53.117,0.84375,0.51050,-0.34448;
19:36:53.127,0.84692,0.50317,-0.32715;
19:36:53.137,0.83960,0.51196,-0.31152;
19:36:53.147,0.84253,0.50659,-0.30103;
19:36:53.157,0.85278,0.48682,-0.25122;
19:36:53.167,0.87646,0.46875,-0.24170;
19:36:53.177,0.86938,0.46362,-0.26904;
19:36:53.187,0.87207,0.42896,-0.26050;
19:36:53.197,0.87329,0.41235,-0.24829;
19:36:53.207,0.84180,0.43750,-0.22412;
19:36:53.217,0.82935,0.45728,-0.21899;
19:36:53.227,0.83398,0.45850,-0.23608;
19:36:53.237,0.84985,0.43774,-0.25415;
19:36:53.247,0.85376,0.43359,-0.26831;
19:36:53.257,0.85303,0.44312,-0.27661;
19:36:53.267,0.84424,0.45093,-0.27832;
19:36:53.277,0.84448,0.45093,-0.27930;
19:36:53.287,0.84937,0.46069,-0.29004;
19:36:53.297,0.84009,0.50903,-0.32007;
19:36:53.307,0.82056,0.51733,-0.35474;
19:36:53.317,0.84570,0.51831,-0.35864;
19:36:53.327,0.84985,0.51953,-0.35205;
19:36:53.337,0.85254,0.52197,-0.34180;
19:36:53.347,0.85010,0.52051,-0.33643;
19:36:53.357,0.86011,0.51709,-0.34521;
19:36:53.367,0.86719,0.50977,-0.34937;
19:36:53.377,0.86255,0.50220,-0.34595;
19:36:53.387,0.85449,0.49829,-0.33960;
19:36:53.397,0.84839,0.49683,-0.33057;
19:36:53.407,0.84839,0.49268,-0.32617;
19:36:53.417,0.85181,0.48584,-0.32178;
19:36:53.427,0.85132,0.48291,-0.32104;
19:36:53.437,0.85229,0.47778,-0.31494;
19:36:53.447,0.85278,0.47485,-0.30005;
19:36:53.457,0.85571,0.46362,-0.27588;
19:36:53.467,0.85791,0.46362,-0.26025;
19:36:53.477,0.85815,0.48486,-0.27393;
19:36:53.487,0.86841,0.47095,-0.30200;
19:36:53.497,0.87402,0.46606,-0.32837;
19:36:53.507,0.87158,0.48486,-0.33472;
19:36:53.517,0.86499,0.48975,-0.32080;
19:36:53.527,0.85547,0.48877,-0.29224;
19:36:53.537,0.84302,0.48096,-0.28174;
19:36:53.547,0.84033,0.46411,-0.29150;
19:36:53.557,0.84595,0.45190,-0.30713;
19:36:53.567,0.84595,0.45459,-0.33496;
19:36:53.577,0.84766,0.45215,-0.35376;
19:36:53.587,0.85010,0.44067,-0.36060;
19:36:53.597,0.85107,0.43042,-0.36401;
19:36:53.607,0.85107,0.43140,-0.36060;
19:36:53.617,0.85303,0.43506,-0.35522;
19:36:53.627,0.85498,0.44092,-0.37524;
19:36:53.637,0.87158,0.41235,-0.37793;
19:36:53.647,0.86841,0.40723,-0.38159;
19:36:53.657,0.86938,0.40137,-0.37793;
19:36:53.667,0.86499,0.39673,-0.37183;
19:36:53.677,0.86377,0.39185,-0.36841;
19:36:53.687,0.86450,0.38843,-0.37329;
19:36:53.697,0.86377,0.39771,-0.38525;
19:36:53.707,0.86475,0.42139,-0.39282;
19:36:53.717,0.86328,0.41675,-0.39722;
19:36:53.727,0.86914,0.41064,-0.40454;
19:36:53.737,0.87549,0.41455,-0.40332;
19:36:53.747,0.87988,0.41382,-0.39380;
19:36:53.757,0.88428,0.41382,-0.38818;
19:36:53.767,0.88354,0.40894,-0.38428;
19:36:53.777,0.88086,0.41016,-0.38989;
19:36:53.787,0.87769,0.41553,-0.40063;
19:36:53.797,0.87305,0.41162,-0.40210;
19:36:53.807,0.86304,0.39917,-0.39404;
19:36:53.817,0.85718,0.39746,-0.39331;
19:36:53.827,0.85522,0.41553,-0.40259;
19:36:53.837,0.85962,0.42261,-0.40869;
19:36:53.847,0.86938,0.42041,-0.41431;
19:36:53.857,0.87256,0.45923,-0.41870;
19:36:53.867,0.87378,0.47021,-0.41724;
19:36:53.877,0.87671,0.44995,-0.42920;
19:36:53.887,0.88110,0.44995,-0.43921;
19:36:53.897,0.88086,0.45630,-0.43188;
19:36:53.907,0.87207,0.46631,-0.41748;
19:36:53.917,0.86816,0.46875,-0.39795;
19:36:53.927,0.86353,0.45752,-0.38086;
19:36:53.937,0.86035,0.43750,-0.37451;
19:36:53.947,0.86670,0.41943,-0.37866;
19:36:53.957,0.86572,0.41211,-0.37988;
19:36:53.967,0.86157,0.39331,-0.32031;
19:36:53.977,0.86450,0.40015,-0.28442;
19:36:53.987,0.87476,0.40381,-0.29834;
19:36:53.997,0.88232,0.40137,-0.31128;
19:36:54.007,0.88599,0.40039,-0.30518;
19:36:54.017,0.87817,0.38989,-0.28247;
19:36:54.027,0.86133,0.38208,-0.27588;
19:36:54.037,0.85327,0.37939,-0.28540;
19:36:54.047,0.85278,0.37354,-0.30078;
19:36:54.057,0.85229,0.36084,-0.31689;
19:36:54.067,0.85205,0.35620,-0.33154;
19:36:54.077,0.85449,0.37085,-0.34570;
19:36:54.087,0.86230,0.37573,-0.35913;
19:36:54.097,0.87109,0.37402,-0.36938;
19:36:54.107,0.87500,0.37720,-0.37817;
19:36:54.117,0.87378,0.38867,-0.38989;
19:36:54.127,0.87354,0.40332,-0.39868;
19:36:54.137,0.87134,0.41211,-0.40771;
19:36:54.147,0.87085,0.42261,-0.41260;
19:36:54.157,0.87012,0.42456,-0.41943;
19:36:54.167,0.86499,0.42358,-0.42871;
19:36:54.177,0.86328,0.43286,-0.43530;
19:36:54.187,0.86450,0.43799,-0.43213;
19:36:54.197,0.86426,0.43091,-0.42334;
19:36:54.207,0.86133,0.41821,-0.40381;
19:36:54.217,0.85571,0.42188,-0.39355;
19:36:54.227,0.85498,0.43579,-0.40308;
19:36:54.237,0.86401,0.43213,-0.40894;
19:36:54.247,0.87109,0.42725,-0.40405;
19:36:54.257,0.87256,0.43091,-0.39575;
19:36:54.267,0.87598,0.43384,-0.38647;
19:36:54.277,0.87549,0.43384,-0.38135;
19:36:54.287,0.87280,0.43872,-0.37427;
19:36:54.297,0.87256,0.44116,-0.35791;
19:36:54.307,0.86841,0.43311,-0.34595;
19:36:54.317,0.85107,0.42847,-0.33008;
19:36:54.327,0.84375,0.45508,-0.33643;
19:36:54.337,0.84155,0.46362,-0.34106;
19:36:54.347,0.84668,0.46753,-0.34912;
19:36:54.357,0.85596,0.46411,-0.33984;
19:36:54.367,0.86011,0.46606,-0.32910;
19:36:54.377,0.85474,0.46851,-0.32837;
19:36:54.387,0.85181,0.47998,-0.33008;
19:36:54.397,0.85229,0.49146,-0.34204;
19:36:54.407,0.85669,0.49243,-0.34521;
19:36:54.417,0.85425,0.48975,-0.33252;
19:36:54.427,0.84741,0.48291,-0.31763;
19:36:54.437,0.84839,0.47363,-0.31079;
19:36:54.447,0.84644,0.46875,-0.30664;
19:36:54.457,0.84546,0.46875,-0.30737;
19:36:54.467,0.83765,0.47827,-0.31226;
19:36:54.477,0.83667,0.48218,-0.31689;
19:36:54.487,0.84229,0.47559,-0.31445;
19:36:54.497,0.85107,0.47485,-0.30762;
19:36:54.507,0.86768,0.47510,-0.29565;
19:36:54.517,0.85547,0.48267,-0.28931;
19:36:54.527,0.85938,0.47583,-0.29541;
19:36:54.537,0.86450,0.47046,-0.31055;
19:36:54.547,0.86035,0.47729,-0.32666;
19:36:54.557,0.86401,0.46436,-0.31519;
19:36:54.567,0.85229,0.45020,-0.30151;
19:36:54.577,0.84619,0.46216,-0.29688;
19:36:54.587,0.83667,0.47290,-0.28906;
19:36:54.597,0.83423,0.46265,-0.28638;
19:36:54.607,0.84473,0.43945,-0.30078;
19:36:54.617,0.85889,0.42383,-0.32153;
19:36:54.627,0.86523,0.44043,-0.34668;
19:36:54.637,0.86792,0.44946,-0.35986;
19:36:54.647,0.86499,0.45020,-0.33838;
19:36:54.657,0.87793,0.42578,-0.33740;
19:36:54.667,0.86328,0.45728,-0.35474;
19:36:54.677,0.86572,0.44897,-0.35815;
19:36:54.687,0.86401,0.42578,-0.34839;
19:36:54.697,0.85938,0.41724,-0.33081;
19:36:54.707,0.85327,0.39746,-0.30249;
19:36:54.717,0.85742,0.37939,-0.28223;
19:36:54.727,0.86230,0.40259,-0.30005;
19:36:54.737,0.86182,0.47388,-0.32104;
19:36:54.747,0.86182,0.53174,-0.32910;
19:36:54.757,0.86035,0.52637,-0.33398;
19:36:54.767,0.86060,0.49585,-0.33618;
19:36:54.777,0.85449,0.47510,-0.33667;
19:36:54.787,0.85474,0.46948,-0.35327;
19:36:54.797,0.85986,0.47290,-0.37378;
19:36:54.807,0.85547,0.47192,-0.38232;
19:36:54.817,0.85254,0.46118,-0.38037;
19:36:54.827,0.84790,0.44482,-0.36865;
19:36:54.837,0.84814,0.45728,-0.37256;
19:36:54.847,0.84521,0.48145,-0.38965;
19:36:54.857,0.84692,0.48511,-0.39429;
19:36:54.867,0.85181,0.47388,-0.39404;
19:36:54.877,0.85278,0.48096,-0.40186;
19:36:54.887,0.85913,0.49683,-0.41626;
19:36:54.897,0.86035,0.49487,-0.42334;
19:36:54.907,0.86255,0.48779,-0.42017;
19:36:54.917,0.86499,0.48730,-0.41675;
19:36:54.927,0.86401,0.49585,-0.40967;
19:36:54.937,0.86084,0.50024,-0.40601;
19:36:54.947,0.85791,0.50049,-0.40454;
19:36:54.957,0.84692,0.49585,-0.39551;
19:36:54.967,0.84863,0.48169,-0.38062;
19:36:54.977,0.83789,0.48315,-0.36621;
19:36:54.987,0.84106,0.48926,-0.39136;
19:36:54.997,0.83887,0.52490,-0.41699;
19:36:55.007,0.83179,0.53784,-0.44409;
19:36:55.017,0.82129,0.52197,-0.46533;
19:36:55.027,0.80591,0.51758,-0.47778;
19:36:55.037,0.81543,0.53223,-0.47900;
19:36:55.047,0.83057,0.54370,-0.48438;
19:36:55.057,0.81323,0.54785,-0.48560;
19:36:55.067,0.80933,0.55420,-0.48022;
19:36:55.077,0.82251,0.55884,-0.47852;
19:36:55.087,0.82690,0.55884,-0.47998;
19:36:55.097,0.83252,0.55908,-0.48340;
19:36:55.107,0.84277,0.55493,-0.46509;
19:36:55.117,0.83960,0.54248,-0.43555;
19:36:55.127,0.82202,0.53296,-0.41699;
19:36:55.137,0.81787,0.54150,-0.41577;
19:36:55.147,0.80981,0.54614,-0.41650;
19:36:55.157,0.81494,0.52026,-0.41089;
19:36:55.167,0.83057,0.47119,-0.37256;
19:36:55.177,0.83032,0.43481,-0.33105;
19:36:55.187,0.82788,0.45142,-0.30566;
19:36:55.197,0.82349,0.47119,-0.28809;
19:36:55.207,0.82471,0.47876,-0.29004;
19:36:55.217,0.82227,0.47583,-0.27930;
19:36:55.227,0.82178,0.44336,-0.26538;
19:36:55.237,0.83252,0.42749,-0.27222;
19:36:55.247,0.84668,0.42236,-0.29614;
19:36:55.257,0.84741,0.40625,-0.32153;
19:36:55.267,0.84106,0.40137,-0.32544;
19:36:55.277,0.83813,0.40527,-0.31958;
19:36:55.287,0.83252,0.40723,-0.32861;
19:36:55.297,0.82617,0.41064,-0.34644;
19:36:55.307,0.82764,0.42236,-0.35962;
19:36:55.317,0.82324,0.37988,-0.35059;
19:36:55.327,0.82397,0.42700,-0.41846;
19:36:55.337,0.82129,0.43311,-0.44312;
19:36:55.347,0.82007,0.41040,-0.45386;
19:36:55.357,0.81274,0.41235,-0.45605;
19:36:55.367,0.80396,0.41748,-0.44971;
19:36:55.377,0.80859,0.43237,-0.45850;
19:36:55.387,0.81567,0.44092,-0.47192;
19:36:55.397,0.82324,0.43091,-0.48267;
19:36:55.407,0.82886,0.41895,-0.49536;
19:36:55.417,0.82471,0.42065,-0.49805;
19:36:55.427,0.82080,0.42603,-0.48071;
19:36:55.437,0.81421,0.41260,-0.46021;
19:36:55.447,0.80273,0.42139,-0.46460;
19:36:55.457,0.80103,0.42285,-0.47021;
19:36:55.467,0.80347,0.40723,-0.46606;
19:36:55.477,0.80835,0.41846,-0.46582;
19:36:55.487,0.80762,0.43994,-0.45825;
19:36:55.497,0.80786,0.42334,-0.45630;
19:36:55.507,0.81177,0.40845,-0.47412;
19:36:55.517,0.80640,0.41357,-0.49097;
19:36:55.527,0.79883,0.38916,-0.46948;
19:36:55.537,0.80298,0.36841,-0.45117;
19:36:55.547,0.80151,0.40161,-0.46436;
19:36:55.557,0.79443,0.41553,-0.48071;
19:36:55.567,0.81006,0.40137,-0.50049;
19:36:55.577,0.82031,0.39185,-0.51367;
19:36:55.587,0.81543,0.39258,-0.52051;
19:36:55.597,0.80225,0.40918,-0.51416;
19:36:55.607,0.78467,0.41162,-0.50073;
19:36:55.617,0.77588,0.42163,-0.49316;
19:36:55.627,0.77344,0.44043,-0.49805;
19:36:55.637,0.77563,0.46289,-0.52832;
19:36:55.647,0.78418,0.45190,-0.55542;
19:36:55.657,0.79443,0.45605,-0.53979;
19:36:55.667,0.77979,0.40967,-0.42285;
19:36:55.677,0.79028,0.34131,-0.42578;
19:36:55.687,0.80811,0.36816,-0.45630;
19:36:55.697,0.82373,0.43188,-0.48779;
19:36:55.707,0.83130,0.45337,-0.52075;
19:36:55.717,0.81030,0.44116,-0.51392;
19:36:55.727,0.78955,0.37939,-0.47925;
19:36:55.737,0.77539,0.34863,-0.41113;
19:36:55.747,0.77148,0.34058,-0.37231;
19:36:55.757,0.77466,0.31152,-0.37646;
19:36:55.767,0.78638,0.28149,-0.42651;
19:36:55.777,0.80640,0.30200,-0.49536;
19:36:55.787,0.81812,0.33105,-0.53369;
19:36:55.797,0.81396,0.34790,-0.55005;
19:36:55.807,0.79443,0.38208,-0.55542;
19:36:55.817,0.77441,0.40576,-0.55005;
19:36:55.827,0.77002,0.39746,-0.54712;
19:36:55.837,0.77124,0.38281,-0.55005;
19:36:55.847,0.77637,0.37061,-0.54004;
19:36:55.857,0.77930,0.36206,-0.52905;
19:36:55.867,0.78296,0.33984,-0.51782;
19:36:55.877,0.79565,0.32959,-0.50415;
19:36:55.887,0.79785,0.34814,-0.49731;
19:36:55.897,0.79639,0.35352,-0.51221;
19:36:55.907,0.80444,0.38403,-0.54688;
19:36:55.917,0.79932,0.39697,-0.56787;
19:36:55.927,0.79395,0.38428,-0.57227;
19:36:55.937,0.79370,0.38965,-0.57666;
19:36:55.947,0.79297,0.39502,-0.57690;
19:36:55.957,0.78906,0.40161,-0.56274;
19:36:55.967,0.78125,0.40674,-0.55078;
19:36:55.977,0.78442,0.41235,-0.54834;
19:36:55.987,0.79150,0.40088,-0.54004;
19:36:55.997,0.78784,0.41846,-0.52539;
19:36:56.007,0.78857,0.41968,-0.53882;
19:36:56.017,0.78882,0.40503,-0.54053;
19:36:56.027,0.79395,0.40161,-0.53027;
19:36:56.037,0.79102,0.41113,-0.52124;
19:36:56.047,0.79077,0.40015,-0.52319;
19:36:56.057,0.80151,0.38062,-0.53101;
19:36:56.067,0.80103,0.38257,-0.53467;
19:36:56.077,0.79272,0.39282,-0.52563;
19:36:56.087,0.78345,0.38086,-0.51343;
19:36:56.097,0.78125,0.36377,-0.49878;
19:36:56.107,0.77954,0.35205,-0.49365;
19:36:56.117,0.78589,0.34814,-0.49341;
19:36:56.127,0.79395,0.35327,-0.49097;
19:36:56.137,0.79517,0.36597,-0.48901;
19:36:56.147,0.79639,0.37451,-0.48657;
19:36:56.157,0.79565,0.38184,-0.49805;
19:36:56.167,0.79395,0.38306,-0.51660;
19:36:56.177,0.80200,0.37866,-0.53101;
19:36:56.187,0.81006,0.37695,-0.53638;
19:36:56.197,0.80664,0.37500,-0.53247;
19:36:56.207,0.80151,0.37891,-0.51880;
19:36:56.217,0.79053,0.37720,-0.51270;
19:36:56.227,0.78882,0.38770,-0.52295;
19:36:56.237,0.78882,0.39160,-0.52637;
19:36:56.247,0.78516,0.36890,-0.51733;
19:36:56.257,0.78418,0.36255,-0.52222;
19:36:56.267,0.78198,0.37720,-0.53540;
19:36:56.277,0.78540,0.39380,-0.54077;
19:36:56.287,0.79004,0.39355,-0.53784;
19:36:56.297,0.80029,0.39722,-0.53687;
19:36:56.307,0.81055,0.41455,-0.54663;
19:36:56.317,0.81836,0.41650,-0.56348;
19:36:56.327,0.81714,0.38501,-0.45850;
19:36:56.337,0.78149,0.28247,-0.38379;
19:36:56.347,0.78979,0.31567,-0.41870;
19:36:56.357,0.80249,0.36865,-0.48608;
19:36:56.367,0.80762,0.35376,-0.52612;
19:36:56.377,0.80640,0.33838,-0.52856;
19:36:56.387,0.80176,0.32764,-0.51709;
19:36:56.397,0.80347,0.34985,-0.49121;
19:36:56.407,0.80273,0.38159,-0.47290;
19:36:56.417,0.80371,0.37378,-0.47241;
19:36:56.427,0.81787,0.36646,-0.49243;
19:36:56.437,0.82690,0.38599,-0.51489;
19:36:56.447,0.82813,0.38647,-0.52563;
19:36:56.457,0.82422,0.37329,-0.53076;
19:36:56.467,0.81348,0.37622,-0.53003;
19:36:56.477,0.80103,0.39600,-0.53125;
19:36:56.487,0.79272,0.40674,-0.53442;
19:36:56.497,0.79272,0.39478,-0.53735;
19:36:56.507,0.79614,0.38159,-0.54077;
19:36:56.517,0.81055,0.37573,-0.53662;
19:36:56.527,0.81982,0.38647,-0.52441;
19:36:56.537,0.81567,0.40088,-0.51587;
19:36:56.547,0.81006,0.39941,-0.51709;
19:36:56.557,0.80762,0.39624,-0.51489;
19:36:56.567,0.80542,0.39746,-0.50781;
19:36:56.577,0.79492,0.38428,-0.48828;
19:36:56.587,0.78711,0.38892,-0.47510;
19:36:56.597,0.78491,0.42700,-0.48511;
19:36:56.607,0.78491,0.45483,-0.50293;
19:36:56.617,0.78979,0.45874,-0.51953;
19:36:56.627,0.79858,0.45581,-0.52490;
19:36:56.637,0.80225,0.44946,-0.51367;
19:36:56.647,0.80103,0.44409,-0.49170;
19:36:56.657,0.79248,0.44531,-0.48071;
19:36:56.667,0.79272,0.46069,-0.49414;
19:36:56.677,0.79321,0.45337,-0.48242;
19:36:56.687,0.78271,0.45654,-0.47925;
19:36:56.697,0.77881,0.46313,-0.48022;
19:36:56.707,0.78027,0.47900,-0.48169;
19:36:56.717,0.78467,0.48315,-0.48633;
19:36:56.727,0.78955,0.47681,-0.47852;
19:36:56.737,0.79517,0.46875,-0.45825;
19:36:56.747,0.79639,0.46924,-0.44385;
19:36:56.757,0.79565,0.47998,-0.43652;
19:36:56.767,0.79932,0.48486,-0.42969;
19:36:56.777,0.79663,0.48779,-0.41968;
19:36:56.787,0.79468,0.47949,-0.39819;
19:36:56.797,0.79419,0.46899,-0.37964;
19:36:56.807,0.79517,0.45337,-0.36060;
19:36:56.817,0.79858,0.45044,-0.34082;
19:36:56.827,0.79883,0.46655,-0.33789;
19:36:56.837,0.80298,0.47339,-0.34424;
19:36:56.847,0.80859,0.47021,-0.34741;
19:36:56.857,0.80957,0.45728,-0.34497;
19:36:56.867,0.81250,0.43774,-0.33325;
19:36:56.877,0.81030,0.43237,-0.32031;
19:36:56.887,0.80078,0.44629,-0.32129;
19:36:56.897,0.79321,0.45557,-0.31909;
19:36:56.907,0.79102,0.45581,-0.32886;
19:36:56.917,0.80591,0.43872,-0.35669;
19:36:56.927,0.82324,0.42285,-0.38550;
19:36:56.937,0.82397,0.43042,-0.40283;
19:36:56.947,0.82129,0.43799,-0.40234;
19:36:56.957,0.82031,0.43359,-0.39551;
19:36:56.967,0.82275,0.42969,-0.38965;
19:36:56.977,0.82202,0.44165,-0.41626;
19:36:56.987,0.82153,0.46680,-0.47021;
19:36:56.997,0.81909,0.47339,-0.50659;
19:36:57.007,0.80884,0.45386,-0.52637;
19:36:57.017,0.77441,0.45703,-0.51465;
19:36:57.027,0.77173,0.46143,-0.53687;
19:36:57.037,0.77783,0.46045,-0.55981;
19:36:57.047,0.78613,0.45239,-0.55786;
19:36:57.057,0.80029,0.44482,-0.54639;
19:36:57.067,0.81030,0.45142,-0.53369;
19:36:57.077,0.82080,0.45532,-0.51245;
19:36:57.087,0.83472,0.43628,-0.48926;
19:36:57.097,0.84155,0.42236,-0.46216;
19:36:57.107,0.84863,0.43115,-0.43164;
19:36:57.117,0.85425,0.43262,-0.40161;
19:36:57.127,0.84937,0.43481,-0.39600;
19:36:57.137,0.83691,0.45850,-0.40332;
19:36:57.147,0.82788,0.48315,-0.41650;
19:36:57.157,0.82446,0.48608,-0.42603;
19:36:57.167,0.82788,0.46899,-0.42041;
19:36:57.177,0.82935,0.46118,-0.41699;
19:36:57.187,0.82715,0.46216,-0.41113;
19:36:57.197,0.83521,0.45947,-0.40723;
19:36:57.207,0.84399,0.46045,-0.40747;
19:36:57.217,0.84912,0.45972,-0.41577;
19:36:57.227,0.84521,0.45459,-0.42847;
19:36:57.237,0.83936,0.45166,-0.43921;
19:36:57.247,0.83008,0.44946,-0.44067;
19:36:57.257,0.82251,0.43188,-0.43896;
19:36:57.267,0.82178,0.43311,-0.43799;
19:36:57.277,0.81104,0.45947,-0.43311;
19:36:57.287,0.79590,0.45947,-0.43457;
19:36:57.297,0.78979,0.44800,-0.44409;
19:36:57.307,0.79639,0.43823,-0.45313;
19:36:57.317,0.80688,0.43530,-0.46240;
19:36:57.327,0.81494,0.42944,-0.46484;
19:36:57.337,0.82617,0.41602,-0.46460;
19:36:57.347,0.83838,0.48682,-0.48193;
19:36:57.357,0.84497,0.44531,-0.48486;
19:36:57.367,0.84082,0.42676,-0.48413;
19:36:57.377,0.83740,0.43042,-0.46606;
19:36:57.387,0.82959,0.42505,-0.45020;
19:36:57.397,0.82593,0.42578,-0.44360;
19:36:57.407,0.83203,0.43408,-0.44946;
19:36:57.417,0.83301,0.43848,-0.45386;
19:36:57.427,0.83130,0.44141,-0.45068;
19:36:57.437,0.83472,0.43066,-0.44775;
19:36:57.447,0.83472,0.42090,-0.40479;
19:36:57.457,0.83350,0.41675,-0.39502;
19:36:57.467,0.83154,0.40112,-0.40381;
19:36:57.477,0.83350,0.40234,-0.43750;
19:36:57.487,0.84302,0.41479,-0.46777;
19:36:57.497,0.85229,0.42139,-0.48706;
19:36:57.507,0.85962,0.42725,-0.49390;
19:36:57.517,0.86719,0.43481,-0.49219;
19:36:57.527,0.85889,0.41699,-0.45337;
19:36:57.537,0.84814,0.27637,-0.30786;
19:36:57.547,0.85010,0.18188,-0.24927;
19:36:57.557,0.86572,0.27759,-0.31616;
19:36:57.567,0.87500,0.39209,-0.39233;
19:36:57.577,0.86694,0.43652,-0.46338;
19:36:57.587,0.84644,0.42090,-0.45776;
19:36:57.597,0.83911,0.38306,-0.41309;
19:36:57.607,0.86865,0.39136,-0.46997;
19:36:57.617,0.87378,0.39233,-0.48682;
19:36:57.627,0.86133,0.39697,-0.46729;
19:36:57.637,0.84204,0.38892,-0.43237;
19:36:57.647,0.83081,0.38696,-0.41577;
19:36:57.657,0.83301,0.39697,-0.42554;
19:36:57.667,0.83838,0.40771,-0.43164;
19:36:57.677,0.84131,0.40625,-0.42676;
19:36:57.687,0.83887,0.40918,-0.42749;
19:36:57.697,0.83716,0.41162,-0.43262;
19:36:57.707,0.83569,0.41235,-0.43164;
19:36:57.717,0.83862,0.41479,-0.42969;
19:36:57.727,0.84058,0.40894,-0.42944;
19:36:57.737,0.83838,0.40063,-0.42310;
19:36:57.747,0.84155,0.39111,-0.41089;
19:36:57.757,0.84912,0.36987,-0.39136;
19:36:57.767,0.84351,0.37671,-0.38379;
19:36:57.777,0.83276,0.41138,-0.39624;
19:36:57.787,0.83643,0.42090,-0.39771;
19:36:57.797,0.84351,0.41113,-0.40625;
19:36:57.807,0.84497,0.41992,-0.43213;
19:36:57.817,0.84009,0.43188,-0.44092;
19:36:57.827,0.83496,0.43262,-0.43213;
19:36:57.837,0.83350,0.42969,-0.41455;
19:36:57.847,0.83813,0.42920,-0.39819;
19:36:57.857,0.84717,0.42432,-0.38892;
19:36:57.867,0.84985,0.42261,-0.38330;
19:36:57.877,0.83911,0.43896,-0.38843;
19:36:57.887,0.83594,0.44751,-0.39307;
19:36:57.897,0.83911,0.45068,-0.39282;
19:36:57.907,0.83472,0.44434,-0.39355;
19:36:57.917,0.83325,0.43921,-0.40454;
19:36:57.927,0.82764,0.44702,-0.40820;
19:36:57.937,0.82544,0.45947,-0.39795;
19:36:57.947,0.83203,0.46362,-0.37305;
19:36:57.957,0.83105,0.46899,-0.36450;
19:36:57.967,0.83545,0.48071,-0.36450;
19:36:57.977,0.83594,0.49316,-0.36890;
19:36:57.987,0.83691,0.49976,-0.37817;
19:36:57.997,0.83813,0.49390,-0.37280;
19:36:58.007,0.83179,0.47729,-0.35181;
19:36:58.017,0.82544,0.48218,-0.34424;
19:36:58.027,0.83154,0.48413,-0.33350;
19:36:58.037,0.83423,0.48096,-0.31665;
19:36:58.047,0.82739,0.48438,-0.30591;
19:36:58.057,0.82227,0.49243,-0.31787;
19:36:58.067,0.82690,0.50684,-0.34229;
19:36:58.077,0.83643,0.51074,-0.35596;
19:36:58.087,0.84399,0.51099,-0.35815;
19:36:58.097,0.83813,0.51001,-0.34961;
19:36:58.107,0.82739,0.50854,-0.33643;
19:36:58.117,0.82373,0.51221,-0.32129;
19:36:58.127,0.82422,0.51440,-0.30957;
19:36:58.137,0.82544,0.51318,-0.30884;
19:36:58.147,0.83203,0.50854,-0.31665;
19:36:58.157,0.83008,0.50586,-0.32056;
19:36:58.167,0.82617,0.51318,-0.32690;
19:36:58.177,0.84741,0.51001,-0.32056;
19:36:58.187,0.85571,0.50684,-0.31372;
19:36:58.197,0.85596,0.50830,-0.29224;
19:36:58.207,0.83618,0.51001,-0.28320;
19:36:58.217,0.81494,0.52124,-0.29102;
19:36:58.227,0.81812,0.52393,-0.30566;
19:36:58.237,0.84302,0.51294,-0.30664;
19:36:58.247,0.86182,0.50952,-0.29712;
19:36:58.257,0.87646,0.50977,-0.26880;
19:36:58.267,0.77612,0.55957,-0.30542;
19:36:58.277,0.83667,0.53149,-0.40063;
19:36:58.287,0.84570,0.50757,-0.42773;
19:36:58.297,0.86426,0.51318,-0.41406;
19:36:58.307,0.84863,0.53931,-0.38281;
19:36:58.317,0.82520,0.56982,-0.36401;
19:36:58.327,0.82324,0.56763,-0.36035;
19:36:58.337,0.83521,0.54468,-0.36426;
19:36:58.347,0.84888,0.51587,-0.37134;
19:36:58.357,0.85059,0.49536,-0.37476;
19:36:58.367,0.85791,0.49512,-0.37354;
19:36:58.377,0.85229,0.50830,-0.37988;
19:36:58.387,0.83423,0.51685,-0.37134;
19:36:58.397,0.81396,0.50977,-0.37915;
19:36:58.407,0.81543,0.49731,-0.38232;
19:36:58.417,0.83179,0.48218,-0.38110;
19:36:58.427,0.84766,0.46094,-0.38477;
19:36:58.437,0.85083,0.44482,-0.38037;
19:36:58.447,0.83911,0.43896,-0.36694;
19:36:58.457,0.84473,0.43872,-0.34351;
19:36:58.467,0.86206,0.44189,-0.31104;
19:36:58.477,0.86548,0.45264,-0.27344;
19:36:58.487,0.85938,0.46582,-0.25659;
19:36:58.497,0.86841,0.47974,-0.28906;
19:36:58.507,0.88232,0.49707,-0.34570;
19:36:58.517,0.87891,0.49219,-0.36328;
19:36:58.527,0.86084,0.46069,-0.35669;
19:36:58.537,0.84424,0.46143,-0.34473;
19:36:58.547,0.83276,0.48584,-0.32739;
19:36:58.557,0.82202,0.49390,-0.31006;
19:36:58.567,0.82178,0.48608,-0.29736;
19:36:58.577,0.82446,0.46582,-0.29541;
19:36:58.587,0.82813,0.45923,-0.30640;
19:36:58.597,0.83301,0.46802,-0.34277;
19:36:58.607,0.81055,0.50244,-0.38013;
19:36:58.617,0.82593,0.45947,-0.39111;
19:36:58.627,0.84106,0.45386,-0.37988;
19:36:58.637,0.84790,0.46509,-0.37427;
19:36:58.647,0.86450,0.46338,-0.37109;
19:36:58.657,0.86450,0.45972,-0.37231;
19:36:58.667,0.85840,0.45605,-0.39087;
19:36:58.677,0.85449,0.46045,-0.41284;
19:36:58.687,0.84009,0.47729,-0.42603;
19:36:58.697,0.83716,0.47021,-0.42822;
19:36:58.707,0.84595,0.43262,-0.42700;
19:36:58.717,0.85547,0.41479,-0.41919;
19:36:58.727,0.85522,0.40503,-0.39307;
19:36:58.737,0.84326,0.39966,-0.37158;
19:36:58.747,0.82788,0.40723,-0.37573;
19:36:58.757,0.82422,0.40991,-0.39575;
19:36:58.767,0.83838,0.41479,-0.41260;
19:36:58.777,0.85547,0.40723,-0.41162;
19:36:58.787,0.86499,0.39185,-0.39771;
19:36:58.797,0.86694,0.38354,-0.37744;
19:36:58.807,0.85718,0.40698,-0.36670;
19:36:58.817,0.85400,0.43555,-0.36353;
19:36:58.827,0.85620,0.42383,-0.36182;
19:36:58.837,0.86279,0.42505,-0.36792;
19:36:58.847,0.87573,0.43213,-0.36841;
19:36:58.857,0.88843,0.44043,-0.35400;
19:36:58.867,0.89282,0.43628,-0.32935;
19:36:58.877,0.88086,0.41309,-0.31787;
19:36:58.887,0.86548,0.41357,-0.32397;
19:36:58.897,0.85132,0.42383,-0.34277;
19:36:58.907,0.84741,0.42334,-0.35596;
19:36:58.917,0.85400,0.42383,-0.36499;
19:36:58.927,0.85669,0.44434,-0.36377;
19:36:58.937,0.85254,0.43018,-0.40552;
19:36:58.947,0.86255,0.39258,-0.44043;
19:36:58.957,0.86475,0.39697,-0.45020;
19:36:58.967,0.85791,0.44800,-0.46021;
19:36:58.977,0.85229,0.48633,-0.47388;
19:36:58.987,0.84668,0.46533,-0.47974;
19:36:58.997,0.84448,0.43188,-0.48340;
19:36:59.007,0.84106,0.40186,-0.47168;
19:36:59.017,0.83911,0.40063,-0.45825;
19:36:59.027,0.83984,0.44849,-0.46533;
19:36:59.037,0.84595,0.46973,-0.47949;
19:36:59.047,0.85669,0.45972,-0.48022;
19:36:59.057,0.86353,0.43799,-0.45557;
19:36:59.067,0.85547,0.38232,-0.41235;
19:36:59.077,0.83496,0.37329,-0.38086;
19:36:59.087,0.83105,0.39111,-0.36670;
19:36:59.097,0.84204,0.40039,-0.36621;
19:36:59.107,0.85571,0.40991,-0.38232;
19:36:59.117,0.87866,0.36328,-0.40771;
19:36:59.127,0.89307,0.32495,-0.42017;
19:36:59.137,0.89233,0.34155,-0.42554;
19:36:59.147,0.89551,0.37256,-0.44360;
19:36:59.157,0.89868,0.35938,-0.43335;
19:36:59.167,0.89819,0.33911,-0.41992;
19:36:59.177,0.89209,0.32520,-0.42383;
19:36:59.187,0.89038,0.29028,-0.43652;
19:36:59.197,0.88940,0.27271,-0.44604;
19:36:59.207,0.88770,0.28564,-0.45337;
19:36:59.217,0.88818,0.31860,-0.46387;
19:36:59.227,0.88916,0.30542,-0.45630;
19:36:59.237,0.88501,0.26416,-0.42236;
19:36:59.247,0.87329,0.22290,-0.38086;
19:36:59.257,0.86230,0.24536,-0.39209;
19:36:59.267,0.86914,0.30981,-0.48633;
19:36:59.277,0.89380,0.34302,-0.45239;
19:36:59.287,0.89526,0.28149,-0.43140;
19:36:59.297,0.88672,0.27515,-0.38257;
19:36:59.307,0.88550,0.20215,-0.35645;
19:36:59.317,0.89063,0.17871,-0.34814;
19:36:59.327,0.87915,0.23633,-0.35034;
19:36:59.337,0.85938,0.26440,-0.33789;
19:36:59.347,0.84839,0.25464,-0.32251;
19:36:59.357,0.84839,0.25024,-0.31958;
19:36:59.367,0.85620,0.24414,-0.33252;
19:36:59.377,0.86816,0.24658,-0.34790;
19:36:59.387,0.87085,0.25415,-0.35327;
19:36:59.397,0.87402,0.27148,-0.37109;
19:36:59.407,0.88330,0.29639,-0.39551;
19:36:59.417,0.88208,0.30981,-0.40771;
19:36:59.427,0.87158,0.30688,-0.40771;
19:36:59.437,0.86621,0.30615,-0.40283;
19:36:59.447,0.86450,0.32300,-0.40845;
19:36:59.457,0.85449,0.32373,-0.39868;
19:36:59.467,0.83887,0.31494,-0.39844;
19:36:59.477,0.84766,0.30957,-0.40039;
19:36:59.487,0.85107,0.33081,-0.40039;
19:36:59.497,0.84741,0.35571,-0.41992;
19:36:59.507,0.85596,0.36646,-0.44580;
19:36:59.517,0.85498,0.39771,-0.47217;
19:36:59.527,0.85815,0.43164,-0.48682;
19:36:59.537,0.86328,0.43848,-0.49023;
19:36:59.547,0.86816,0.43286,-0.48657;
19:36:59.557,0.86548,0.43823,-0.47510;
19:36:59.567,0.86206,0.45239,-0.45508;
19:36:59.577,0.85522,0.45386,-0.43066;
19:36:59.587,0.85229,0.42944,-0.41626;
19:36:59.597,0.85645,0.42261,-0.41382;
19:36:59.607,0.84131,0.44312,-0.42407;
19:36:59.617,0.83325,0.41675,-0.44043;
19:36:59.627,0.84570,0.41455,-0.44385;
19:36:59.637,0.85718,0.40527,-0.43579;
19:36:59.647,0.87061,0.41724,-0.42773;
19:36:59.657,0.87891,0.46313,-0.42334;
19:36:59.667,0.88232,0.49243,-0.43481;
19:36:59.677,0.88501,0.47778,-0.43506;
19:36:59.687,0.88428,0.46143,-0.42310;
19:36:59.697,0.87329,0.46313,-0.41675;
19:36:59.707,0.86328,0.46777,-0.41016;
19:36:59.717,0.85034,0.46582,-0.40381;
19:36:59.727,0.83545,0.45703,-0.39502;
19:36:59.737,0.83838,0.44873,-0.39893;
19:36:59.747,0.85181,0.45483,-0.41284;
19:36:59.757,0.86304,0.46387,-0.42627;
19:36:59.767,0.87305,0.46094,-0.42456;
19:36:59.777,0.88013,0.45093,-0.41016;
19:36:59.787,0.88037,0.44189,-0.39941;
19:36:59.797,0.88306,0.44678,-0.38940;
19:36:59.807,0.88770,0.45508,-0.37256;
19:36:59.817,0.88257,0.46753,-0.36719;
19:36:59.827,0.88672,0.47583,-0.36133;
19:36:59.837,0.88281,0.46118,-0.36230;
19:36:59.847,0.87427,0.44458,-0.37915;
19:36:59.857,0.86621,0.45020,-0.39233;
19:36:59.867,0.85889,0.46045,-0.39771;
19:36:59.877,0.85474,0.45996,-0.38208;
19:36:59.887,0.84204,0.44482,-0.35840;
19:36:59.897,0.82617,0.41357,-0.35352;
19:36:59.907,0.82422,0.40308,-0.37427;
19:36:59.917,0.83667,0.44165,-0.42090;
19:36:59.927,0.84814,0.47217,-0.46997;
19:36:59.937,0.85449,0.48682,-0.52588;
19:36:59.947,0.84058,0.45190,-0.45947;
19:36:59.957,0.82690,0.44507,-0.38892;
19:36:59.967,0.82690,0.45093,-0.37231;
19:36:59.977,0.83521,0.45288,-0.36353;
19:36:59.987,0.84424,0.43896,-0.34741;
19:36:59.997,0.84570,0.41846,-0.31299;
19:37:00.007,0.84814,0.40381,-0.27124;
19:37:00.017,0.85034,0.42188,-0.24463;
19:37:00.027,0.87329,0.43066,-0.24805;
19:37:00.037,0.87817,0.41089,-0.23901;
19:37:00.047,0.87256,0.39258,-0.23853;
19:37:00.057,0.86719,0.38428,-0.25293;
19:37:00.067,0.85938,0.39551,-0.27368;
19:37:00.077,0.85962,0.42310,-0.31934;
19:37:00.087,0.86475,0.44824,-0.36060;
19:37:00.097,0.86597,0.44702,-0.37866;
19:37:00.107,0.86938,0.44922,-0.38037;
19:37:00.117,0.86816,0.46387,-0.37622;
19:37:00.127,0.85474,0.47021,-0.37646;
19:37:00.137,0.84082,0.46924,-0.38696;
19:37:00.147,0.83813,0.46753,-0.40088;
19:37:00.157,0.84692,0.46338,-0.40234;
19:37:00.167,0.84570,0.45264,-0.38989;
19:37:00.177,0.83276,0.45386,-0.37305;
19:37:00.187,0.82739,0.47632,-0.36060;
19:37:00.197,0.82471,0.49854,-0.35815;
19:37:00.207,0.82422,0.50684,-0.36304;
19:37:00.217,0.82666,0.50781,-0.36353;
19:37:00.227,0.82471,0.50757,-0.37256;
19:37:00.237,0.82983,0.50635,-0.41187;
19:37:00.247,0.85571,0.50684,-0.42114;
19:37:00.257,0.84863,0.49194,-0.39453;
19:37:00.267,0.84253,0.48901,-0.38721;
19:37:00.277,0.84009,0.48242,-0.37378;
19:37:00.287,0.83594,0.47119,-0.36157;
19:37:00.297,0.82910,0.45117,-0.35229;
19:37:00.307,0.82373,0.43701,-0.34912;
19:37:00.317,0.82129,0.44678,-0.34961;
19:37:00.327,0.81909,0.46753,-0.33984;
19:37:00.337,0.81958,0.46973,-0.32617;
19:37:00.347,0.82007,0.44751,-0.32227;
19:37:00.357,0.81641,0.44189,-0.32935;
19:37:00.367,0.82056,0.45654,-0.34546;
19:37:00.377,0.83350,0.46558,-0.35986;
19:37:00.387,0.84448,0.46143,-0.36548;
19:37:00.397,0.85596,0.46191,-0.35986;
19:37:00.407,0.86450,0.46143,-0.34424;
19:37:00.417,0.86255,0.47119,-0.33911;
19:37:00.427,0.85181,0.47461,-0.34570;
19:37:00.437,0.84351,0.46216,-0.35791;
19:37:00.447,0.84204,0.45264,-0.36719;
19:37:00.457,0.84253,0.44238,-0.36475;
19:37:00.467,0.84326,0.44971,-0.36060;
19:37:00.477,0.84204,0.45483,-0.35498;
19:37:00.487,0.83350,0.44727,-0.35474;
19:37:00.497,0.82837,0.43872,-0.36328;
19:37:00.507,0.83301,0.45093,-0.37939;
19:37:00.517,0.84082,0.46118,-0.39307;
19:37:00.527,0.84326,0.45972,-0.39282;
19:37:00.537,0.84204,0.46118,-0.39258;
19:37:00.547,0.84448,0.46216,-0.39648;
19:37:00.557,0.85083,0.46289,-0.40283;
19:37:00.567,0.85156,0.46753,-0.40967;
19:37:00.577,0.85327,0.47998,-0.41870;
19:37:00.587,0.85791,0.44678,-0.42139;
19:37:00.597,0.85132,0.43091,-0.42163;
19:37:00.607,0.84644,0.47754,-0.44409;
19:37:00.617,0.85059,0.50269,-0.46313;
19:37:00.627,0.86206,0.48071,-0.46655;
19:37:00.637,0.87012,0.47412,-0.45630;
19:37:00.647,0.87158,0.48071,-0.44873;
19:37:00.657,0.87036,0.47388,-0.43457;
19:37:00.667,0.87158,0.45972,-0.40869;
19:37:00.677,0.87012,0.43945,-0.38086;
19:37:00.687,0.86694,0.42310,-0.36694;
19:37:00.697,0.86768,0.40894,-0.35425;
19:37:00.707,0.86230,0.37939,-0.33667;
19:37:00.717,0.85352,0.35840,-0.33057;
19:37:00.727,0.84595,0.36841,-0.34009;
19:37:00.737,0.84424,0.38110,-0.36060;
19:37:00.747,0.85522,0.37549,-0.37720;
19:37:00.757,0.86890,0.36401,-0.38306;
19:37:00.767,0.87720,0.36792,-0.38379;
19:37:00.777,0.87744,0.37207,-0.38354;
19:37:00.787,0.86792,0.38306,-0.38599;
19:37:00.797,0.85693,0.39746,-0.39795;
19:37:00.807,0.85327,0.39038,-0.41260;
19:37:00.817,0.85156,0.37769,-0.41846;
19:37:00.827,0.84912,0.36841,-0.41528;
19:37:00.837,0.85059,0.37280,-0.40845;
19:37:00.847,0.84741,0.37036,-0.39697;
19:37:00.857,0.84229,0.35889,-0.40161;
19:37:00.867,0.85181,0.35547,-0.42017;
19:37:00.877,0.85840,0.37183,-0.42163;
19:37:00.887,0.85303,0.38599,-0.40649;
19:37:00.897,0.85425,0.39478,-0.40503;
19:37:00.907,0.86353,0.40088,-0.40039;
19:37:00.917,0.86792,0.40576,-0.38525;
19:37:00.927,0.85156,0.42285,-0.39722;
19:37:00.937,0.84302,0.41479,-0.41382;
19:37:00.947,0.84473,0.40405,-0.40820;
19:37:00.957,0.84302,0.40698,-0.39429;
19:37:00.967,0.83887,0.41089,-0.39307;
19:37:00.977,0.84009,0.41309,-0.40918;
19:37:00.987,0.85376,0.41016,-0.42651;
19:37:00.997,0.86475,0.40649,-0.43359;
19:37:01.007,0.87305,0.41187,-0.43164;
19:37:01.017,0.88135,0.41455,-0.42871;
19:37:01.027,0.88403,0.41528,-0.41675;
19:37:01.037,0.87354,0.41406,-0.40308;
19:37:01.047,0.86011,0.40430,-0.39185;
19:37:01.057,0.85303,0.40356,-0.39526;
19:37:01.067,0.84448,0.40869,-0.40112;
19:37:01.077,0.83984,0.39771,-0.40820;
19:37:01.087,0.83813,0.38989,-0.41431;
19:37:01.097,0.84009,0.39478,-0.41772;
19:37:01.107,0.85010,0.39575,-0.43262;
19:37:01.117,0.86011,0.39648,-0.43311;
19:37:01.127,0.86450,0.39014,-0.42847;
19:37:01.137,0.86572,0.38965,-0.42139;
19:37:01.147,0.86841,0.39917,-0.41260;
19:37:01.157,0.87085,0.40601,-0.41284;
19:37:01.167,0.86768,0.40674,-0.41479;
19:37:01.177,0.86353,0.40332,-0.41333;
19:37:01.187,0.85571,0.40015,-0.40625;
19:37:01.197,0.84473,0.39868,-0.39941;
19:37:01.207,0.83618,0.40063,-0.39063;
19:37:01.217,0.82861,0.39868,-0.38403;
19:37:01.227,0.82837,0.39990,-0.39014;
19:37:01.237,0.83496,0.40063,-0.39819;
19:37:01.247,0.84790,0.39917,-0.40454;
19:37:01.257,0.85547,0.39600,-0.40723;
19:37:01.267,0.86401,0.41992,-0.42285;
19:37:01.277,0.87012,0.41846,-0.43945;
19:37:01.287,0.86743,0.40405,-0.43335;
19:37:01.297,0.85718,0.39819,-0.42163;
19:37:01.307,0.85107,0.39917,-0.41284;
19:37:01.317,0.84668,0.39526,-0.40796;
19:37:01.327,0.83984,0.38794,-0.40552;
19:37:01.337,0.83984,0.38818,-0.41187;
19:37:01.347,0.84448,0.39063,-0.41943;
19:37:01.357,0.85498,0.38989,-0.42383;
19:37:01.367,0.86182,0.39063,-0.42310;
19:37:01.377,0.86035,0.39429,-0.41553;
19:37:01.387,0.85938,0.40503,-0.41406;
19:37:01.397,0.86475,0.40771,-0.41650;
19:37:01.407,0.86865,0.41113,-0.42139;
19:37:01.417,0.86719,0.41479,-0.42383;
19:37:01.427,0.85913,0.41138,-0.41895;
19:37:01.437,0.84888,0.40698,-0.41602;
19:37:01.447,0.84497,0.39795,-0.40112;
19:37:01.457,0.83789,0.37134,-0.38477;
19:37:01.467,0.83301,0.35522,-0.38232;
19:37:01.477,0.83105,0.36646,-0.39233;
19:37:01.487,0.83008,0.36206,-0.40796;
19:37:01.497,0.82861,0.34937,-0.42163;
19:37:01.507,0.82446,0.35840,-0.42334;
19:37:01.517,0.82544,0.38989,-0.40845;
19:37:01.527,0.82764,0.42822,-0.38745;
19:37:01.537,0.82861,0.45679,-0.37280;
19:37:01.547,0.83105,0.46558,-0.37964;
19:37:01.557,0.83423,0.47510,-0.39233;
19:37:01.567,0.84619,0.45117,-0.35864;
19:37:01.577,0.83984,0.44336,-0.36548;
19:37:01.587,0.84082,0.44775,-0.36768;
19:37:01.597,0.84058,0.44482,-0.36963;
19:37:01.607,0.84399,0.42993,-0.37524;
19:37:01.617,0.84619,0.41479,-0.37622;
19:37:01.627,0.84595,0.41431,-0.37720;
19:37:01.637,0.84302,0.42700,-0.38818;
19:37:01.647,0.84253,0.43530,-0.40210;
19:37:01.657,0.84570,0.42871,-0.40674;
19:37:01.667,0.84741,0.42383,-0.40283;
19:37:01.677,0.84302,0.43359,-0.38916;
19:37:01.687,0.83789,0.42749,-0.38013;
19:37:01.697,0.83496,0.41626,-0.38086;
19:37:01.707,0.83569,0.41943,-0.38623;
19:37:01.717,0.84326,0.41626,-0.38477;
19:37:01.727,0.84521,0.40698,-0.38159;
19:37:01.737,0.85034,0.40283,-0.38110;
19:37:01.747,0.84912,0.41797,-0.37231;
19:37:01.757,0.84106,0.44336,-0.36987;
19:37:01.767,0.83789,0.45532,-0.36743;
19:37:01.777,0.83447,0.45386,-0.35938;
19:37:01.787,0.83789,0.45996,-0.36694;
19:37:01.797,0.84546,0.48657,-0.38452;
19:37:01.807,0.85620,0.49658,-0.39478;
19:37:01.817,0.86133,0.48364,-0.39258;
19:37:01.827,0.86011,0.47119,-0.38770;
19:37:01.837,0.85181,0.46338,-0.39282;
19:37:01.847,0.84399,0.46509,-0.41382;
19:37:01.857,0.84692,0.46387,-0.43872;
19:37:01.867,0.85327,0.43921,-0.44678;
19:37:01.877,0.85742,0.41064,-0.43433;
19:37:01.887,0.85986,0.43286,-0.41772;
19:37:01.897,0.86743,0.39819,-0.42480;
19:37:01.907,0.87085,0.41309,-0.41553;
19:37:01.917,0.87207,0.42651,-0.40015;
19:37:01.927,0.87207,0.43262,-0.38745;
19:37:01.937,0.87354,0.41602,-0.37549;
19:37:01.947,0.86865,0.40088,-0.36475;
19:37:01.957,0.85767,0.39941,-0.35547;
19:37:01.967,0.85327,0.41772,-0.34546;
19:37:01.977,0.85425,0.42017,-0.34131;
19:37:01.987,0.85059,0.42212,-0.35034;
19:37:01.997,0.85034,0.43750,-0.36499;
19:37:02.007,0.85449,0.43140,-0.36450;
19:37:02.017,0.85303,0.40894,-0.35864;
19:37:02.027,0.84570,0.39624,-0.35791;
19:37:02.037,0.84106,0.39209,-0.36670;
19:37:02.047,0.84253,0.38062,-0.37305;
19:37:02.057,0.84741,0.38330,-0.37085;
19:37:02.067,0.84839,0.40503,-0.38257;
19:37:02.077,0.84644,0.41553,-0.39673;
19:37:02.087,0.84253,0.41602,-0.39893;
19:37:02.097,0.83911,0.41724,-0.39307;
19:37:02.107,0.83716,0.41943,-0.39111;
19:37:02.117,0.83716,0.41919,-0.38892;
19:37:02.127,0.84106,0.41602,-0.40039;
19:37:02.137,0.84790,0.42065,-0.42065;
19:37:02.147,0.85498,0.41797,-0.43408;
19:37:02.157,0.85425,0.42090,-0.44312;
19:37:02.167,0.85376,0.43018,-0.44263;
19:37:02.177,0.85376,0.43262,-0.43335;
19:37:02.187,0.84888,0.43311,-0.42285;
19:37:02.197,0.84570,0.41919,-0.41772;
19:37:02.207,0.84570,0.41162,-0.42188;
19:37:02.217,0.85034,0.41650,-0.43945;
19:37:02.227,0.85962,0.45996,-0.44165;
19:37:02.237,0.86011,0.44141,-0.45166;
19:37:02.247,0.85815,0.43408,-0.45508;
19:37:02.257,0.85986,0.43872,-0.45801;
19:37:02.267,0.86230,0.42139,-0.44189;
19:37:02.277,0.86426,0.40186,-0.42505;
19:37:02.287,0.87256,0.39673,-0.41333;
19:37:02.297,0.87720,0.39600,-0.39990;
19:37:02.307,0.86694,0.40747,-0.39868;
19:37:02.317,0.85791,0.41382,-0.40137;
19:37:02.327,0.85327,0.41309,-0.40063;
19:37:02.337,0.85132,0.40845,-0.38965;
19:37:02.347,0.85034,0.40576,-0.37744;
19:37:02.357,0.84814,0.40503,-0.36572;
19:37:02.367,0.84839,0.40283,-0.36255;
19:37:02.377,0.85059,0.40430,-0.36279;
19:37:02.387,0.85059,0.40332,-0.35962;
19:37:02.397,0.84668,0.40381,-0.36450;
19:37:02.407,0.84912,0.41284,-0.37036;
19:37:02.417,0.85718,0.41895,-0.37451;
19:37:02.427,0.85889,0.41650,-0.37012;
19:37:02.437,0.85742,0.41089,-0.36475;
19:37:02.447,0.85449,0.41260,-0.36719;
19:37:02.457,0.84741,0.41260,-0.37134;
19:37:02.467,0.84717,0.40625,-0.37866;
19:37:02.477,0.85376,0.40112,-0.39063;
19:37:02.487,0.86255,0.39648,-0.40332;
19:37:02.497,0.86646,0.39917,-0.40405;
19:37:02.507,0.86694,0.40723,-0.40649;
19:37:02.517,0.86353,0.42041,-0.42163;
19:37:02.527,0.85840,0.43140,-0.42871;
19:37:02.537,0.85815,0.42920,-0.43237;
19:37:02.547,0.85742,0.42749,-0.43579;
19:37:02.557,0.84814,0.42627,-0.40820;
19:37:02.567,0.83594,0.43677,-0.40356;
19:37:02.577,0.83643,0.43018,-0.39917;
19:37:02.587,0.84644,0.41992,-0.39282;
19:37:02.597,0.85034,0.41699,-0.39429;
19:37:02.607,0.85034,0.41870,-0.40210;
19:37:02.617,0.85278,0.41870,-0.40405;
19:37:02.627,0.85620,0.42407,-0.40576;
19:37:02.637,0.86011,0.42139,-0.40161;
19:37:02.647,0.86353,0.41626,-0.39941;
19:37:02.657,0.86328,0.42090,-0.40015;
19:37:02.667,0.86499,0.42310,-0.39990;
19:37:02.677,0.86499,0.41479,-0.39453;
19:37:02.687,0.85938,0.40454,-0.38794;
19:37:02.697,0.85767,0.39478,-0.38428;
19:37:02.707,0.85522,0.39551,-0.38354;
19:37:02.717,0.85254,0.39551,-0.38574;
19:37:02.727,0.85352,0.38623,-0.38647;
19:37:02.737,0.86060,0.38306,-0.38843;
19:37:02.747,0.86670,0.38354,-0.39160;
19:37:02.757,0.86987,0.38794,-0.39697;
19:37:02.767,0.87256,0.39502,-0.40723;
19:37:02.777,0.87622,0.40259,-0.41748;
19:37:02.787,0.87524,0.40771,-0.42676;
19:37:02.797,0.87036,0.41382,-0.42822;
19:37:02.807,0.86914,0.41772,-0.41821;
19:37:02.817,0.86938,0.40747,-0.40063;
19:37:02.827,0.86279,0.40283,-0.39087;
19:37:02.837,0.85107,0.39844,-0.38501;
19:37:02.847,0.83740,0.38843,-0.38086;
19:37:02.857,0.82813,0.39233,-0.37915;
19:37:02.867,0.82739,0.39746,-0.37451;
19:37:02.877,0.83203,0.40186,-0.37451;
19:37:02.887,0.83960,0.40552,-0.37817;
19:37:02.897,0.85181,0.41089,-0.39697;
19:37:02.907,0.85083,0.41748,-0.41016;
19:37:02.917,0.85425,0.41602,-0.41577;
19:37:02.927,0.85693,0.40674,-0.41431;
19:37:02.937,0.85645,0.40259,-0.40747;
19:37:02.947,0.86133,0.40015,-0.39063;
19:37:02.957,0.87158,0.40015,-0.37793;
19:37:02.967,0.87329,0.39893,-0.37915;
19:37:02.977,0.86694,0.39917,-0.37988;
19:37:02.987,0.85962,0.40601,-0.38281;
19:37:02.997,0.86011,0.41333,-0.39185;
19:37:03.007,0.86523,0.42310,-0.39868;
19:37:03.017,0.86572,0.43066,-0.40601;
19:37:03.027,0.86475,0.43774,-0.41187;
19:37:03.037,0.86523,0.44043,-0.41309;
19:37:03.047,0.86011,0.43848,-0.41089;
19:37:03.057,0.85596,0.42896,-0.40796;
19:37:03.067,0.85059,0.41724,-0.40820;
19:37:03.077,0.84424,0.40894,-0.40649;
19:37:03.087,0.84375,0.40552,-0.40405;
19:37:03.097,0.84473,0.39990,-0.40576;
19:37:03.107,0.85034,0.39380,-0.40796;
19:37:03.117,0.85327,0.39331,-0.41382;
19:37:03.127,0.84668,0.39746,-0.41968;
19:37:03.137,0.84521,0.40479,-0.41724;
19:37:03.147,0.85449,0.40674,-0.41187;
19:37:03.157,0.86084,0.41724,-0.40479;
19:37:03.167,0.85962,0.42651,-0.39600;
19:37:03.177,0.85132,0.42114,-0.39014;
19:37:03.187,0.84009,0.41968,-0.38599;
19:37:03.197,0.83569,0.42188,-0.38403;
19:37:03.207,0.84131,0.42578,-0.38135;
19:37:03.217,0.85107,0.43018,-0.37769;
19:37:03.227,0.85767,0.41357,-0.37280;
19:37:03.237,0.86206,0.40527,-0.37134;
19:37:03.247,0.85840,0.40430,-0.37646;
19:37:03.257,0.86084,0.40503,-0.38013;
19:37:03.267,0.85840,0.41235,-0.39404;
19:37:03.277,0.85376,0.41333,-0.40381;
19:37:03.287,0.85083,0.41211,-0.40430;
19:37:03.297,0.85669,0.40625,-0.40283;
19:37:03.307,0.86426,0.40283,-0.40112;
19:37:03.317,0.87012,0.40552,-0.39990;
19:37:03.327,0.88013,0.40405,-0.40137;
19:37:03.337,0.88159,0.40210,-0.40405;
19:37:03.347,0.87476,0.40503,-0.40625;
19:37:03.357,0.86865,0.41382,-0.41284;
19:37:03.367,0.86792,0.41772,-0.41870;
19:37:03.377,0.87280,0.41675,-0.42261;
19:37:03.387,0.87915,0.42041,-0.41895;
19:37:03.397,0.88062,0.41846,-0.41162;
19:37:03.407,0.87891,0.41187,-0.41943;
19:37:03.417,0.87012,0.41211,-0.42920;
19:37:03.427,0.86084,0.40723,-0.43018;
19:37:03.437,0.85278,0.40063,-0.41821;
19:37:03.447,0.84082,0.39868,-0.40137;
19:37:03.457,0.83960,0.40088,-0.39282;
19:37:03.467,0.84717,0.40015,-0.37451;
19:37:03.477,0.84839,0.39478,-0.37036;
19:37:03.487,0.84399,0.39063,-0.37793;
19:37:03.497,0.83521,0.39282,-0.38403;
19:37:03.507,0.83301,0.39771,-0.38794;
19:37:03.517,0.83350,0.38892,-0.38379;
19:37:03.527,0.83789,0.39258,-0.37305;
19:37:03.537,0.84546,0.40869,-0.36963;
19:37:03.547,0.85107,0.41333,-0.37183;
19:37:03.557,0.85791,0.41162,-0.37915;
19:37:03.567,0.84106,0.41504,-0.38647;
19:37:03.577,0.84937,0.41553,-0.38843;
19:37:03.587,0.85010,0.41357,-0.39014;
19:37:03.597,0.84790,0.40552,-0.38574;
19:37:03.607,0.84497,0.39868,-0.38623;
19:37:03.617,0.84644,0.40112,-0.39404;
19:37:03.627,0.85254,0.39795,-0.40405;
19:37:03.637,0.85864,0.38843,-0.41382;
19:37:03.647,0.86914,0.38623,-0.42236;
19:37:03.657,0.87183,0.39038,-0.41748;
19:37:03.667,0.86475,0.39746,-0.41455;
19:37:03.677,0.86279,0.40698,-0.42383;
19:37:03.687,0.86011,0.41504,-0.42554;
19:37:03.697,0.85547,0.42017,-0.42578;
19:37:03.707,0.85132,0.41748,-0.41626;
19:37:03.717,0.84570,0.41455,-0.40527;
19:37:03.727,0.84644,0.40942,-0.40112;
19:37:03.737,0.84424,0.41260,-0.39380;
19:37:03.747,0.84497,0.41455,-0.38721;
19:37:03.757,0.84717,0.41113,-0.38379;
19:37:03.767,0.84888,0.41162,-0.38477;
19:37:03.777,0.85986,0.40625,-0.38428;
19:37:03.787,0.86743,0.40039,-0.37939;
19:37:03.797,0.86963,0.39624,-0.37378;
19:37:03.807,0.87573,0.38867,-0.36377;
19:37:03.817,0.87744,0.37769,-0.35400;
19:37:03.827,0.87964,0.37207,-0.35156;
19:37:03.837,0.87549,0.37305,-0.35425;
19:37:03.847,0.86792,0.37939,-0.36646;
19:37:03.857,0.85986,0.38843,-0.37646;
19:37:03.867,0.85742,0.39087,-0.38916;
19:37:03.877,0.86108,0.39087,-0.40454;
19:37:03.887,0.86621,0.39771,-0.41016;
19:37:03.897,0.86938,0.42212,-0.41748;
19:37:03.907,0.85962,0.44629,-0.43311;
19:37:03.917,0.85400,0.45361,-0.43311;
19:37:03.927,0.84985,0.44800,-0.43164;
19:37:03.937,0.84692,0.44531,-0.42798;
19:37:03.947,0.84595,0.45142,-0.41870;
19:37:03.957,0.84448,0.44580,-0.40869;
19:37:03.967,0.84399,0.43799,-0.40210;
19:37:03.977,0.84595,0.42969,-0.40723;
19:37:03.987,0.84595,0.41870,-0.40698;
19:37:03.997,0.85425,0.40967,-0.40454;
19:37:04.007,0.86426,0.40430,-0.40332;
19:37:04.017,0.87427,0.39819,-0.40137;
19:37:04.027,0.87915,0.39624,-0.39990;
19:37:04.037,0.87988,0.39209,-0.39331;
19:37:04.047,0.87451,0.39258,-0.38281;
19:37:04.057,0.86792,0.39258,-0.37622;
19:37:04.067,0.86279,0.39453,-0.37866;
19:37:04.077,0.85767,0.39966,-0.37744;
19:37:04.087,0.86255,0.39502,-0.36475;
19:37:04.097,0.86157,0.37012,-0.34888;
19:37:04.107,0.86475,0.36084,-0.33862;
19:37:04.117,0.87378,0.37964,-0.33447;
19:37:04.127,0.87695,0.39087,-0.33008;
19:37:04.137,0.87866,0.39502,-0.32886;
19:37:04.147,0.88110,0.39258,-0.33325;
19:37:04.157,0.88599,0.38354,-0.33545;
19:37:04.167,0.89355,0.37964,-0.34106;
19:37:04.177,0.89697,0.37769,-0.34399;
19:37:04.187,0.89209,0.36377,-0.35010;
19:37:04.197,0.88037,0.34717,-0.36597;
19:37:04.207,0.87158,0.34741,-0.37842;
19:37:04.217,0.87280,0.36499,-0.40063;
19:37:04.227,0.87817,0.40210,-0.43823;
19:37:04.237,0.86914,0.41968,-0.44019;
19:37:04.247,0.86792,0.42065,-0.43213;
19:37:04.257,0.85913,0.42627,-0.43115;
19:37:04.267,0.85254,0.43481,-0.43701;
19:37:04.277,0.85254,0.43994,-0.44067;
19:37:04.287,0.85059,0.44287,-0.43848;
19:37:04.297,0.85327,0.44116,-0.42993;
19:37:04.307,0.85962,0.43384,-0.41431;
19:37:04.317,0.86035,0.43335,-0.39844;
19:37:04.327,0.86353,0.43066,-0.38818;
19:37:04.337,0.86938,0.42383,-0.38745;
19:37:04.347,0.86963,0.41968,-0.38452;
19:37:04.357,0.86719,0.41382,-0.38647;
19:37:04.367,0.86426,0.41113,-0.39233;
19:37:04.377,0.86646,0.40601,-0.39282;
19:37:04.387,0.86792,0.40039,-0.38574;
19:37:04.397,0.86597,0.39990,-0.37158;
19:37:04.407,0.86597,0.39600,-0.36206;
19:37:04.417,0.86206,0.39478,-0.34570;
19:37:04.427,0.86304,0.39404,-0.33374;
19:37:04.437,0.86938,0.39038,-0.33911;
19:37:04.447,0.87915,0.40210,-0.35010;
19:37:04.457,0.88745,0.40601,-0.36328;
19:37:04.467,0.88794,0.40527,-0.37378;
19:37:04.477,0.88892,0.41309,-0.38232;
19:37:04.487,0.88647,0.41309,-0.39063;
19:37:04.497,0.87817,0.41382,-0.39185;
19:37:04.507,0.87085,0.40723,-0.39722;
19:37:04.517,0.86865,0.39941,-0.41675;
19:37:04.527,0.86621,0.38989,-0.42627;
19:37:04.537,0.86133,0.38745,-0.42847;
19:37:04.547,0.86060,0.40259,-0.43335;
19:37:04.557,0.85938,0.41943,-0.43066;
19:37:04.567,0.85962,0.40601,-0.42065;
19:37:04.577,0.85840,0.45044,-0.42798;
19:37:04.587,0.86572,0.44360,-0.43164;
19:37:04.597,0.87183,0.43164,-0.42505;
19:37:04.607,0.86279,0.42261,-0.39868;
19:37:04.617,0.84546,0.41553,-0.37622;
19:37:04.627,0.84399,0.42114,-0.36987;
19:37:04.637,0.85449,0.42700,-0.38159;
19:37:04.647,0.87451,0.41235,-0.38306;
19:37:04.657,0.88599,0.38013,-0.36987;
19:37:04.667,0.88599,0.35889,-0.35303;
19:37:04.677,0.87866,0.35278,-0.33252;
19:37:04.687,0.86621,0.37231,-0.34326;
19:37:04.697,0.86182,0.39990,-0.36475;
19:37:04.707,0.86401,0.40527,-0.37280;
19:37:04.717,0.86963,0.39404,-0.38184;
19:37:04.727,0.87671,0.38623,-0.37744;
19:37:04.737,0.87598,0.38281,-0.37012;
19:37:04.747,0.86475,0.39478,-0.36426;
19:37:04.757,0.85571,0.40015,-0.36475;
19:37:04.767,0.85278,0.38818,-0.37207;
19:37:04.777,0.86133,0.37646,-0.38306;
19:37:04.787,0.87500,0.36670,-0.39258;
19:37:04.797,0.87744,0.35864,-0.39868;
19:37:04.807,0.87036,0.36548,-0.40674;
19:37:04.817,0.85522,0.37402,-0.40405;
19:37:04.827,0.84888,0.37671,-0.40039;
19:37:04.837,0.85229,0.37915,-0.39453;
19:37:04.847,0.85620,0.38135,-0.39551;
19:37:04.857,0.87524,0.38477,-0.40601;
19:37:04.867,0.88013,0.39526,-0.41382;
19:37:04.877,0.87378,0.39307,-0.41016;
19:37:04.887,0.85791,0.37549,-0.40649;
19:37:04.897,0.85913,0.37744,-0.40796;
19:37:04.907,0.86255,0.37866,-0.41675;
19:37:04.917,0.86987,0.39063,-0.42163;
19:37:04.927,0.88354,0.38379,-0.42090;
19:37:04.937,0.89087,0.35620,-0.41431;
19:37:04.947,0.88525,0.35400,-0.41431;
19:37:04.957,0.87744,0.36230,-0.41382;
19:37:04.967,0.86963,0.35913,-0.41235;
19:37:04.977,0.86694,0.36060,-0.41431;
19:37:04.987,0.86865,0.37451,-0.41626;
19:37:04.997,0.86816,0.38574,-0.41040;
19:37:05.007,0.86865,0.39307,-0.39575;
19:37:05.017,0.86304,0.40430,-0.38379;
19:37:05.027,0.85132,0.41284,-0.37964;
19:37:05.037,0.84546,0.41479,-0.38062;
19:37:05.047,0.84326,0.41479,-0.38354;
19:37:05.057,0.84814,0.41528,-0.38306;
19:37:05.067,0.85815,0.41040,-0.38232;
19:37:05.077,0.86743,0.40332,-0.38306;
19:37:05.087,0.86792,0.39673,-0.39209;
19:37:05.097,0.86914,0.38843,-0.40088;
19:37:05.107,0.87012,0.38403,-0.40503;
19:37:05.117,0.87109,0.38574,-0.40356;
19:37:05.127,0.87524,0.38379,-0.40869;
19:37:05.137,0.87500,0.38013,-0.42139;
19:37:05.147,0.87012,0.37915,-0.42822;
19:37:05.157,0.86475,0.37500,-0.42578;
19:37:05.167,0.86621,0.37134,-0.42310;
19:37:05.177,0.86792,0.36987,-0.41772;
19:37:05.187,0.87402,0.36548,-0.40405;
19:37:05.197,0.87549,0.37573,-0.40015;
19:37:05.207,0.86548,0.38550,-0.39966;
19:37:05.217,0.85547,0.38525,-0.39868;
19:37:05.227,0.83765,0.40820,-0.38306;
19:37:05.237,0.87427,0.39990,-0.38257;
19:37:05.247,0.87695,0.39697,-0.38184;
19:37:05.257,0.87891,0.39380,-0.38013;
19:37:05.267,0.88306,0.39941,-0.38794;
19:37:05.277,0.88647,0.39819,-0.39136;
19:37:05.287,0.87744,0.38403,-0.39307;
19:37:05.297,0.86426,0.38965,-0.40430;
19:37:05.307,0.86108,0.40186,-0.42334;
19:37:05.317,0.86426,0.40381,-0.43848;
19:37:05.327,0.86548,0.39917,-0.45068;
19:37:05.337,0.87329,0.38940,-0.45752;
19:37:05.347,0.87988,0.37354,-0.43945;
19:37:05.357,0.87500,0.37109,-0.42065;
19:37:05.367,0.87573,0.37866,-0.41992;
19:37:05.377,0.88208,0.37573,-0.42285;
19:37:05.387,0.87866,0.37134,-0.42334;
19:37:05.397,0.87061,0.38110,-0.42407;
19:37:05.407,0.86938,0.38818,-0.42090;
19:37:05.417,0.86670,0.38818,-0.41382;
19:37:05.427,0.86255,0.39282,-0.40430;
19:37:05.437,0.86816,0.39380,-0.39893;
19:37:05.447,0.87256,0.39282,-0.38330;
19:37:05.457,0.86572,0.39111,-0.37329;
19:37:05.467,0.86743,0.38916,-0.37476;
19:37:05.477,0.86353,0.39185,-0.37427;
19:37:05.487,0.85742,0.40039,-0.37891;
19:37:05.497,0.86157,0.39966,-0.38086;
19:37:05.507,0.86597,0.38965,-0.37451;
19:37:05.517,0.86914,0.37891,-0.37280;
19:37:05.527,0.87183,0.37354,-0.38354;
19:37:05.537,0.86963,0.37451,-0.39453;
19:37:05.547,0.86548,0.36426,-0.40723;
19:37:05.557,0.86792,0.35913,-0.40137;
19:37:05.567,0.87329,0.36255,-0.39868;
19:37:05.577,0.87402,0.36475,-0.39819;
19:37:05.587,0.87427,0.37256,-0.41016;
19:37:05.597,0.88232,0.38452,-0.41577;
19:37:05.607,0.88843,0.39258,-0.41650;
19:37:05.617,0.89160,0.39526,-0.41382;
19:37:05.627,0.88525,0.39502,-0.40527;
19:37:05.637,0.87793,0.39087,-0.40601;
19:37:05.647,0.87329,0.38647,-0.41797;
19:37:05.657,0.87305,0.38330,-0.41968;
19:37:05.667,0.87378,0.37964,-0.41089;
19:37:05.677,0.86621,0.38062,-0.40430;
19:37:05.687,0.86255,0.38184,-0.40771;
19:37:05.697,0.86353,0.38672,-0.41309;
19:37:05.707,0.85059,0.36792,-0.41724;
19:37:05.717,0.85327,0.35718,-0.41187;
19:37:05.727,0.85571,0.35083,-0.41040;
19:37:05.737,0.85938,0.34961,-0.41016;
19:37:05.747,0.86694,0.35669,-0.40796;
19:37:05.757,0.87280,0.35181,-0.40576;
19:37:05.767,0.87085,0.35229,-0.40918;
19:37:05.777,0.87061,0.36401,-0.41919;
19:37:05.787,0.88110,0.37207,-0.42969;
19:37:05.797,0.87915,0.37598,-0.41504;
19:37:05.807,0.86450,0.37183,-0.39648;
19:37:05.817,0.86060,0.38037,-0.39380;
19:37:05.827,0.86646,0.39111,-0.39111;
19:37:05.837,0.86670,0.38354,-0.38135;
19:37:05.847,0.86768,0.38501,-0.39624;
19:37:05.857,0.87085,0.38745,-0.40405;
19:37:05.867,0.86768,0.38281,-0.39917;
19:37:05.877,0.85840,0.37646,-0.39990;
19:37:05.887,0.85498,0.37500,-0.40405;
19:37:05.897,0.85864,0.37720,-0.41187;
19:37:05.907,0.86548,0.37646,-0.42041;
19:37:05.917,0.87061,0.37549,-0.41406;
19:37:05.927,0.87012,0.37231,-0.40454;
19:37:05.937,0.86450,0.36841,-0.40356;
19:37:05.947,0.86157,0.36938,-0.40820;
19:37:05.957,0.86230,0.37158,-0.41260;
19:37:05.967,0.86646,0.37769,-0.41260;
19:37:05.977,0.87134,0.38330,-0.41675;
19:37:05.987,0.87207,0.38770,-0.41528;
19:37:05.997,0.87671,0.38696,-0.41260;
19:37:06.007,0.87939,0.37964,-0.41479;
19:37:06.017,0.87500,0.37646,-0.41870;
19:37:06.027,0.87256,0.38086,-0.42749;
19:37:06.037,0.87158,0.38599,-0.42871;
19:37:06.047,0.87451,0.38135,-0.42432;
19:37:06.057,0.87549,0.36987,-0.40747;
19:37:06.067,0.87305,0.37769,-0.39478;
19:37:06.077,0.87476,0.37915,-0.39331;
19:37:06.087,0.87793,0.36816,-0.39209;
19:37:06.097,0.87817,0.36377,-0.39038;
19:37:06.107,0.87598,0.36377,-0.39331;
19:37:06.117,0.87427,0.36694,-0.40234;
19:37:06.127,0.87378,0.36841,-0.41162;
19:37:06.137,0.87573,0.37158,-0.40991;
19:37:06.147,0.87622,0.36938,-0.40576;
19:37:06.157,0.87622,0.36572,-0.40015;
19:37:06.167,0.87158,0.36597,-0.39307;
19:37:06.177,0.85767,0.37231,-0.37769;
19:37:06.187,0.85767,0.38086,-0.38184;
19:37:06.197,0.85425,0.38037,-0.38403;
19:37:06.207,0.85474,0.38574,-0.38843;
19:37:06.217,0.85864,0.38989,-0.39746;
19:37:06.227,0.86572,0.39258,-0.40283;
19:37:06.237,0.86694,0.40088,-0.40039;
19:37:06.247,0.87427,0.40015,-0.40454;
19:37:06.257,0.88208,0.39941,-0.40796;
19:37:06.267,0.87891,0.39575,-0.40503;
19:37:06.277,0.87598,0.38770,-0.40015;
19:37:06.287,0.87451,0.38208,-0.39478;
19:37:06.297,0.86694,0.38208,-0.38599;
19:37:06.307,0.86035,0.38843,-0.38501;
19:37:06.317,0.85547,0.39453,-0.38574;
19:37:06.327,0.84985,0.40063,-0.38403;
19:37:06.337,0.85498,0.40356,-0.38330;
19:37:06.347,0.86304,0.40112,-0.38013;
19:37:06.357,0.86816,0.39697,-0.38208;
19:37:06.367,0.87573,0.38599,-0.38330;
19:37:06.377,0.87988,0.38159,-0.38232;
19:37:06.387,0.87793,0.38501,-0.38086;
19:37:06.397,0.88013,0.38574,-0.38599;
19:37:06.407,0.87939,0.38525,-0.39453;
19:37:06.417,0.86987,0.38647,-0.39502;
19:37:06.427,0.86719,0.38916,-0.39966;
19:37:06.437,0.87085,0.38477,-0.40308;
19:37:06.447,0.87036,0.38062,-0.39746;
19:37:06.457,0.87207,0.37793,-0.39136;
19:37:06.467,0.86987,0.37866,-0.38965;
19:37:06.477,0.86255,0.38672,-0.39111;
19:37:06.487,0.86304,0.39258,-0.39258;
19:37:06.497,0.86426,0.39307,-0.39795;
19:37:06.507,0.88037,0.40649,-0.40796;
19:37:06.517,0.87744,0.40869,-0.40771;
19:37:06.527,0.87671,0.40991,-0.41357;
19:37:06.537,0.87427,0.40161,-0.40918;
19:37:06.547,0.87354,0.39038,-0.40015;
19:37:06.557,0.87305,0.38354,-0.38525;
19:37:06.567,0.87329,0.38110,-0.37695;
19:37:06.577,0.86816,0.37988,-0.37329;
19:37:06.587,0.86255,0.38428,-0.37402;
19:37:06.597,0.86548,0.38721,-0.37915;
19:37:06.607,0.87012,0.37915,-0.37817;
19:37:06.617,0.87427,0.37012,-0.36963;
19:37:06.627,0.86963,0.37524,-0.36768;
19:37:06.637,0.87305,0.37939,-0.37720;
19:37:06.647,0.88037,0.38306,-0.38623;
19:37:06.657,0.88452,0.38477,-0.39209;
19:37:06.667,0.88159,0.36572,-0.37915;
19:37:06.677,0.87085,0.36572,-0.36963;
19:37:06.687,0.87793,0.36157,-0.37109;
19:37:06.697,0.87671,0.35132,-0.37329;
19:37:06.707,0.87207,0.35742,-0.37549;
19:37:06.717,0.86597,0.36987,-0.38257;
19:37:06.727,0.86328,0.39160,-0.39014;
19:37:06.737,0.86157,0.39844,-0.39209;
19:37:06.747,0.85938,0.40796,-0.40308;
19:37:06.757,0.86548,0.41382,-0.40552;
19:37:06.767,0.86523,0.40845,-0.40405;
19:37:06.777,0.87183,0.40674,-0.40381;
19:37:06.787,0.87744,0.40503,-0.40723;
19:37:06.797,0.87793,0.40942,-0.40747;
19:37:06.807,0.87915,0.40771,-0.40991;
19:37:06.817,0.87622,0.40503,-0.41162;
19:37:06.827,0.86841,0.40015,-0.40015;
19:37:06.837,0.86279,0.39526,-0.39722;
19:37:06.847,0.86621,0.39990,-0.40820;
19:37:06.857,0.87646,0.40063,-0.39648;
19:37:06.867,0.87012,0.39893,-0.38672;
19:37:06.877,0.86963,0.40210,-0.39160;
19:37:06.887,0.87109,0.40259,-0.39453;
19:37:06.897,0.87427,0.40063,-0.38892;
19:37:06.907,0.87451,0.39551,-0.38696;
19:37:06.917,0.87207,0.39551,-0.38013;
19:37:06.927,0.87061,0.39990,-0.38086;
19:37:06.937,0.87256,0.40161,-0.38696;
19:37:06.947,0.87549,0.40161,-0.38647;
19:37:06.957,0.87378,0.40503,-0.38428;
19:37:06.967,0.87451,0.41333,-0.38696;
19:37:06.977,0.87646,0.42041,-0.38770;
19:37:06.987,0.87866,0.41919,-0.39502;
19:37:06.997,0.87964,0.41504,-0.40259;
19:37:07.007,0.87451,0.41089,-0.40649;
19:37:07.017,0.87378,0.40283,-0.40967;
19:37:07.027,0.87402,0.39502,-0.40381;
19:37:07.037,0.87061,0.39136,-0.40112;
19:37:07.047,0.87573,0.38696,-0.39819;
19:37:07.057,0.88379,0.37988,-0.38940;
19:37:07.067,0.88306,0.37305,-0.38135;
19:37:07.077,0.88257,0.37207,-0.37891;
19:37:07.087,0.87744,0.38062,-0.38184;
19:37:07.097,0.87231,0.38257,-0.38647;
19:37:07.107,0.87036,0.38110,-0.39014;
19:37:07.117,0.87158,0.37915,-0.39087;
19:37:07.127,0.87231,0.37524,-0.38232;
19:37:07.137,0.87988,0.36768,-0.37549;
19:37:07.147,0.88037,0.36353,-0.36450;
19:37:07.157,0.87427,0.36890,-0.36011;
19:37:07.167,0.87720,0.37695,-0.36572;
19:37:07.177,0.87769,0.37891,-0.36890;
19:37:07.187,0.88037,0.37354,-0.36963;
19:37:07.197,0.86133,0.39404,-0.37769;
19:37:07.207,0.85742,0.40112,-0.40283;
19:37:07.217,0.86084,0.39258,-0.40552;
19:37:07.227,0.86206,0.38745,-0.40649;
19:37:07.237,0.86646,0.38940,-0.40186;
19:37:07.247,0.87061,0.39453,-0.39893;
19:37:07.257,0.86816,0.39575,-0.40283;
19:37:07.267,0.86475,0.39990,-0.40967;
19:37:07.277,0.86865,0.40820,-0.42090;
19:37:07.287,0.87134,0.41772,-0.42993;
19:37:07.297,0.87109,0.41992,-0.43530;
19:37:07.307,0.87305,0.41528,-0.43628;
19:37:07.317,0.87622,0.40088,-0.42993;
19:37:07.327,0.88013,0.36963,-0.38330;
19:37:07.337,0.88354,0.34741,-0.34131;
19:37:07.347,0.88013,0.33423,-0.36646;
19:37:07.357,0.89648,0.32129,-0.38574;
19:37:07.367,0.89600,0.30029,-0.36743;
19:37:07.377,0.87671,0.28809,-0.32007;
19:37:07.387,0.86328,0.32373,-0.29028;
19:37:07.397,0.85840,0.36353,-0.30469;
19:37:07.407,0.87939,0.37207,-0.33276;
19:37:07.417,0.89185,0.38647,-0.36035;
19:37:07.427,0.89453,0.39087,-0.36938;
19:37:07.437,0.88770,0.38428,-0.37134;
19:37:07.447,0.87671,0.36450,-0.36938;
19:37:07.457,0.86328,0.36133,-0.37329;
19:37:07.467,0.85693,0.38013,-0.38281;
19:37:07.477,0.85645,0.38745,-0.38647;
19:37:07.487,0.86206,0.39624,-0.40161;
19:37:07.497,0.86963,0.38940,-0.40332;
19:37:07.507,0.86670,0.39941,-0.40552;
19:37:07.517,0.87158,0.41260,-0.41626;
19:37:07.527,0.87134,0.43921,-0.42090;
19:37:07.537,0.86108,0.43335,-0.41992;
19:37:07.547,0.86182,0.43164,-0.41309;
19:37:07.557,0.86035,0.43262,-0.39526;
19:37:07.567,0.86328,0.42993,-0.38037;
19:37:07.577,0.86938,0.42700,-0.36865;
19:37:07.587,0.86475,0.43091,-0.36108;
19:37:07.597,0.86182,0.43286,-0.36230;
19:37:07.607,0.86621,0.42456,-0.37549;
19:37:07.617,0.86743,0.41968,-0.38892;
19:37:07.627,0.87036,0.41943,-0.39722;
19:37:07.637,0.87109,0.41553,-0.40381;
19:37:07.647,0.87231,0.40186,-0.39990;
19:37:07.657,0.87524,0.38794,-0.39282;
19:37:07.667,0.87183,0.37671,-0.38208;
19:37:07.677,0.86694,0.36963,-0.37842;
19:37:07.687,0.86890,0.37085,-0.37695;
19:37:07.697,0.87036,0.38184,-0.38403;
19:37:07.707,0.87256,0.39233,-0.38867;
19:37:07.717,0.87476,0.39404,-0.39331;
19:37:07.727,0.87646,0.39575,-0.40259;
19:37:07.737,0.88525,0.39453,-0.40601;
19:37:07.747,0.88965,0.39404,-0.40649;
19:37:07.757,0.88330,0.39502,-0.41064;
19:37:07.767,0.88330,0.39355,-0.41626;
19:37:07.777,0.88062,0.39551,-0.41650;
19:37:07.787,0.87378,0.39502,-0.41138;
19:37:07.797,0.87134,0.39404,-0.39966;
19:37:07.807,0.86719,0.39233,-0.38940;
19:37:07.817,0.86475,0.39453,-0.38623;
19:37:07.827,0.86353,0.39233,-0.39136;
19:37:07.837,0.86401,0.38794,-0.39136;
19:37:07.847,0.86475,0.38794,-0.39673;
19:37:07.857,0.86670,0.39233,-0.40308;
19:37:07.867,0.86963,0.39380,-0.42017;
19:37:07.877,0.87451,0.40479,-0.41626;
19:37:07.887,0.86743,0.37451,-0.38623;
19:37:07.897,0.86792,0.37744,-0.38477;
19:37:07.907,0.86694,0.37549,-0.37817;
19:37:07.917,0.86621,0.37695,-0.36938;
19:37:07.927,0.86475,0.37622,-0.36719;
19:37:07.937,0.86450,0.36816,-0.36353;
19:37:07.947,0.86572,0.36621,-0.35938;
19:37:07.957,0.86328,0.37256,-0.35986;
19:37:07.967,0.86694,0.37573,-0.37354;
19:37:07.977,0.87012,0.38306,-0.38184;
19:37:07.987,0.87402,0.38501,-0.38525;
19:37:07.997,0.87842,0.38110,-0.38208;
19:37:08.007,0.87671,0.37939,-0.38110;
19:37:08.017,0.87549,0.37061,-0.38818;
19:37:08.027,0.87061,0.36133,-0.38159;
19:37:08.037,0.86304,0.36963,-0.38208;
19:37:08.047,0.85986,0.36865,-0.38745;
19:37:08.057,0.86206,0.36548,-0.39136;
19:37:08.067,0.86841,0.37231,-0.40015;
19:37:08.077,0.87109,0.36987,-0.39355;
19:37:08.087,0.86523,0.38086,-0.39722;
19:37:08.097,0.86328,0.40161,-0.40283;
19:37:08.107,0.86377,0.40527,-0.40845;
19:37:08.117,0.86084,0.40479,-0.41455;
19:37:08.127,0.86255,0.40161,-0.41333;
19:37:08.137,0.86108,0.39966,-0.41943;
19:37:08.147,0.86084,0.39844,-0.42554;
19:37:08.157,0.86060,0.39038,-0.42725;
19:37:08.167,0.86499,0.38452,-0.41357;
19:37:08.177,0.86694,0.38721,-0.40039;
19:37:08.187,0.86499,0.38916,-0.39697;
19:37:08.197,0.86816,0.37964,-0.39111;
19:37:08.207,0.87134,0.37280,-0.38525;
19:37:08.217,0.87109,0.38843,-0.37891;
19:37:08.227,0.87280,0.39795,-0.39551;
19:37:08.237,0.86597,0.38257,-0.41162;
19:37:08.247,0.86523,0.37695,-0.41821;
19:37:08.257,0.87036,0.37256,-0.41919;
19:37:08.267,0.87183,0.36694,-0.41577;
19:37:08.277,0.87573,0.36255,-0.40356;
19:37:08.287,0.87964,0.37036,-0.39868;
19:37:08.297,0.88110,0.37012,-0.39795;
19:37:08.307,0.88086,0.36401,-0.39063;
19:37:08.317,0.86987,0.37524,-0.37988;
19:37:08.327,0.86035,0.38501,-0.37573;
19:37:08.337,0.85840,0.39185,-0.37695;
19:37:08.347,0.86768,0.39331,-0.37891;
19:37:08.357,0.88013,0.39282,-0.38550;
19:37:08.367,0.88135,0.39917,-0.38745;
19:37:08.377,0.87598,0.40576,-0.38696;
19:37:08.387,0.87012,0.40625,-0.39282;
19:37:08.397,0.87036,0.40918,-0.40234;
19:37:08.407,0.87646,0.41504,-0.40674;
19:37:08.417,0.88110,0.39063,-0.38403;
19:37:08.427,0.89038,0.36108,-0.38062;
19:37:08.437,0.88501,0.35229,-0.41040;
19:37:08.447,0.89819,0.31079,-0.40063;
19:37:08.457,0.89648,0.29956,-0.37793;
19:37:08.467,0.88745,0.32520,-0.35669;
19:37:08.477,0.87769,0.34595,-0.35889;
19:37:08.487,0.88647,0.35156,-0.37793;
19:37:08.497,0.89819,0.36646,-0.40869;
19:37:08.507,0.89795,0.36768,-0.42114;
19:37:08.517,0.88574,0.35547,-0.41284;
19:37:08.527,0.87817,0.34277,-0.39453;
19:37:08.537,0.87476,0.33960,-0.38452;
19:37:08.547,0.87573,0.34521,-0.38184;
19:37:08.557,0.87549,0.34375,-0.38208;
19:37:08.567,0.86523,0.39160,-0.40430;
19:37:08.577,0.85791,0.40332,-0.39697;
19:37:08.587,0.85205,0.41553,-0.40112;
19:37:08.597,0.84937,0.41650,-0.40503;
19:37:08.607,0.85278,0.41577,-0.40796;
19:37:08.617,0.86548,0.41602,-0.40967;
19:37:08.627,0.87500,0.41797,-0.40356;
19:37:08.637,0.87915,0.42578,-0.39526;
19:37:08.647,0.87793,0.43530,-0.38452;
19:37:08.657,0.87183,0.43970,-0.37622;
19:37:08.667,0.86938,0.43872,-0.37329;
19:37:08.677,0.86719,0.42896,-0.36963;
19:37:08.687,0.86060,0.41821,-0.37036;
19:37:08.697,0.85840,0.41724,-0.37476;
19:37:08.707,0.85913,0.41919,-0.38354;
19:37:08.717,0.85327,0.41528,-0.39307;
19:37:08.727,0.85278,0.41138,-0.39819;
19:37:08.737,0.85547,0.40308,-0.39111;
19:37:08.747,0.86035,0.39111,-0.38574;
19:37:08.757,0.86475,0.38647,-0.37939;
19:37:08.767,0.87207,0.37866,-0.38184;
19:37:08.777,0.88135,0.37988,-0.38818;
19:37:08.787,0.87842,0.38989,-0.39282;
19:37:08.797,0.87646,0.39258,-0.39648;
19:37:08.807,0.88037,0.39380,-0.39722;
19:37:08.817,0.88452,0.39575,-0.39795;
19:37:08.827,0.87866,0.39600,-0.38867;
19:37:08.837,0.86719,0.39868,-0.37939;
19:37:08.847,0.86401,0.40112,-0.37085;
19:37:08.857,0.86035,0.39722,-0.36938;
19:37:08.867,0.85059,0.39453,-0.36499;
19:37:08.877,0.84888,0.39600,-0.36206;
19:37:08.887,0.85596,0.40039,-0.36475;
19:37:08.897,0.86206,0.40479,-0.36816;
19:37:08.907,0.86865,0.41406,-0.38281;
19:37:08.917,0.87842,0.41772,-0.39771;
19:37:08.927,0.87769,0.41455,-0.40063;
19:37:08.937,0.87061,0.40649,-0.39478;
19:37:08.947,0.86475,0.39624,-0.38965;
19:37:08.957,0.85986,0.38794,-0.38916;
19:37:08.967,0.85547,0.38257,-0.38257;
19:37:08.977,0.85474,0.38599,-0.38354;
19:37:08.987,0.86035,0.39355,-0.38306;
19:37:08.997,0.86963,0.40112,-0.38745;
19:37:09.007,0.87573,0.40674,-0.39111;
19:37:09.017,0.87744,0.40918,-0.39087;
19:37:09.027,0.87671,0.41064,-0.38770;
19:37:09.037,0.87891,0.40601,-0.38452;
19:37:09.047,0.88257,0.39771,-0.38062;
19:37:09.057,0.87817,0.39258,-0.36914;
19:37:09.067,0.87085,0.39673,-0.36719;
19:37:09.077,0.86841,0.40405,-0.36816;
19:37:09.087,0.86499,0.40942,-0.36914;
19:37:09.097,0.86182,0.41455,-0.36914;
19:37:09.107,0.85986,0.41064,-0.37378;
19:37:09.117,0.86035,0.40039,-0.37720;
19:37:09.127,0.86108,0.39551,-0.37549;
19:37:09.137,0.86426,0.39136,-0.38354;
19:37:09.147,0.87012,0.39185,-0.39282;
19:37:09.157,0.87500,0.40039,-0.39600;
19:37:09.167,0.87720,0.40308,-0.39893;
19:37:09.177,0.88013,0.40088,-0.39429;
19:37:09.187,0.87842,0.39551,-0.38965;
19:37:09.197,0.87085,0.39722,-0.38940;
19:37:09.207,0.86523,0.40015,-0.38721;
19:37:09.217,0.86279,0.39722,-0.38110;
19:37:09.227,0.85645,0.40088,-0.37549;
19:37:09.237,0.85474,0.40112,-0.37720;
19:37:09.247,0.85571,0.40039,-0.37695;
19:37:09.257,0.85547,0.40527,-0.37891;
19:37:09.267,0.86304,0.41138,-0.37842;
19:37:09.277,0.87378,0.42310,-0.38599;
19:37:09.287,0.87476,0.41699,-0.37915;
19:37:09.297,0.87476,0.41870,-0.37915;
19:37:09.307,0.87158,0.41064,-0.37744;
19:37:09.317,0.86597,0.40454,-0.37817;
19:37:09.327,0.86108,0.40405,-0.38110;
19:37:09.337,0.85840,0.40381,-0.38330;
19:37:09.347,0.85962,0.40210,-0.38428;
19:37:09.357,0.86060,0.39771,-0.38257;
19:37:09.367,0.85840,0.40137,-0.38452;
19:37:09.377,0.86084,0.40503,-0.38159;
19:37:09.387,0.86621,0.40601,-0.38135;
19:37:09.397,0.86792,0.40967,-0.38721;
19:37:09.407,0.86670,0.41431,-0.38892;
19:37:09.417,0.86865,0.40967,-0.38501;
19:37:09.427,0.86768,0.40796,-0.38257;
19:37:09.437,0.86499,0.41260,-0.37964;
19:37:09.447,0.86035,0.41016,-0.37671;
19:37:09.457,0.86060,0.40991,-0.37744;
19:37:09.467,0.86646,0.40771,-0.37256;
19:37:09.477,0.86475,0.40845,-0.36548;
19:37:09.487,0.86108,0.40674,-0.36060;
19:37:09.497,0.85986,0.40356,-0.36328;
19:37:09.507,0.85889,0.40918,-0.36377;
19:37:09.517,0.85889,0.40747,-0.36108;
19:37:09.527,0.85938,0.40405,-0.36792;
19:37:09.537,0.86230,0.41040,-0.37744;
19:37:09.547,0.87061,0.41284,-0.38257;
19:37:09.557,0.87842,0.41089,-0.38306;
19:37:09.567,0.88208,0.40869,-0.38330;
19:37:09.577,0.87891,0.40991,-0.38525;
19:37:09.587,0.86938,0.40942,-0.38672;
19:37:09.597,0.86182,0.40503,-0.38184;
19:37:09.607,0.85889,0.40332,-0.38135;
19:37:09.617,0.85693,0.40527,-0.38794;
19:37:09.627,0.86133,0.40356,-0.38428;
19:37:09.637,0.86304,0.41284,-0.38916;
19:37:09.647,0.86792,0.41431,-0.39063;
19:37:09.657,0.86816,0.41772,-0.38379;
19:37:09.667,0.86572,0.42041,-0.38135;
19:37:09.677,0.86523,0.42090,-0.37573;
19:37:09.687,0.86304,0.41650,-0.37231;
19:37:09.697,0.86035,0.41675,-0.37061;
19:37:09.707,0.85327,0.41870,-0.37354;
19:37:09.717,0.85229,0.41797,-0.37524;
19:37:09.727,0.85742,0.41455,-0.37207;
19:37:09.737,0.86255,0.41431,-0.37329;
19:37:09.747,0.86353,0.41504,-0.37231;
19:37:09.757,0.86377,0.41162,-0.37354;
19:37:09.767,0.86890,0.40991,-0.37988;
19:37:09.777,0.87183,0.41113,-0.38135;
19:37:09.787,0.87671,0.40723,-0.37988;
19:37:09.797,0.87305,0.40576,-0.38525;
19:37:09.807,0.86597,0.40894,-0.38599;
19:37:09.817,0.86743,0.40967,-0.38867;
19:37:09.827,0.86255,0.40381,-0.38940;
19:37:09.837,0.85669,0.40210,-0.39087;
19:37:09.847,0.86938,0.43091,-0.38550;
19:37:09.857,0.87061,0.42090,-0.38599;
19:37:09.867,0.86401,0.41553,-0.37866;
19:37:09.877,0.86230,0.41040,-0.37769;
19:37:09.887,0.86401,0.40747,-0.36963;
19:37:09.897,0.86670,0.40356,-0.37085;
19:37:09.907,0.86108,0.41284,-0.37524;
19:37:09.917,0.86060,0.42114,-0.37769;
19:37:09.927,0.86279,0.42505,-0.38159;
19:37:09.937,0.86255,0.42651,-0.38379;
19:37:09.947,0.86182,0.42480,-0.38208;
19:37:09.957,0.86255,0.41919,-0.38110;
19:37:09.967,0.86133,0.41553,-0.38110;
19:37:09.977,0.85742,0.41626,-0.37646;
19:37:09.987,0.85889,0.41309,-0.37500;
19:37:09.997,0.86084,0.40674,-0.36987;
19:37:10.007,0.85986,0.41138,-0.37012;
19:37:10.017,0.86426,0.41699,-0.37646;
19:37:10.027,0.86987,0.41650,-0.37842;
19:37:10.037,0.87402,0.41479,-0.37793;
19:37:10.047,0.87476,0.41772,-0.38062;
19:37:10.057,0.87085,0.42065,-0.38037;
19:37:10.067,0.86621,0.41919,-0.37646;
19:37:10.077,0.86279,0.41284,-0.37720;
19:37:10.087,0.85815,0.41382,-0.37695;
19:37:10.097,0.85352,0.42017,-0.37891;
19:37:10.107,0.85474,0.41650,-0.37671;
19:37:10.117,0.85840,0.41382,-0.37524;
19:37:10.127,0.86255,0.41333,-0.37524;
19:37:10.137,0.86743,0.40845,-0.37598;
19:37:10.147,0.86743,0.41016,-0.38013;
19:37:10.157,0.87109,0.41309,-0.38257;
19:37:10.167,0.86792,0.40723,-0.38574;
19:37:10.177,0.86377,0.41333,-0.38843;
19:37:10.187,0.86670,0.42065,-0.38477;
19:37:10.197,0.86450,0.42261,-0.37891;
19:37:10.207,0.86133,0.41553,-0.37451;
19:37:10.217,0.86060,0.41504,-0.37866;
19:37:10.227,0.85889,0.42017,-0.37671;
19:37:10.237,0.86401,0.41943,-0.37109;
19:37:10.247,0.86572,0.40503,-0.35840;
19:37:10.257,0.86084,0.41528,-0.35376;
19:37:10.267,0.85840,0.41943,-0.35229;
19:37:10.277,0.85522,0.42334,-0.35596;
19:37:10.287,0.85815,0.42847,-0.36108;
19:37:10.297,0.86377,0.41992,-0.35718;
19:37:10.307,0.86621,0.41455,-0.35107;
19:37:10.317,0.87134,0.42480,-0.36011;
19:37:10.327,0.87207,0.43408,-0.36987;
19:37:10.337,0.86719,0.42847,-0.37402;
19:37:10.347,0.86011,0.42310,-0.38086;
19:37:10.357,0.85352,0.42627,-0.38721;
19:37:10.367,0.85400,0.41943,-0.39429;
19:37:10.377,0.85742,0.40942,-0.39795;
19:37:10.387,0.86206,0.40649,-0.40112;
19:37:10.397,0.86694,0.40430,-0.40625;
19:37:10.407,0.87305,0.40015,-0.40552;
19:37:10.417,0.87769,0.40088,-0.40527;
19:37:10.427,0.87988,0.41260,-0.40161;
19:37:10.437,0.88086,0.42163,-0.39160;
19:37:10.447,0.87891,0.42676,-0.38037;
19:37:10.457,0.86938,0.43213,-0.37280;
19:37:10.467,0.86255,0.43530,-0.37085;
19:37:10.477,0.85913,0.43042,-0.36914;
19:37:10.487,0.85449,0.42554,-0.36743;
19:37:10.497,0.85474,0.41724,-0.36719;
19:37:10.507,0.85913,0.40820,-0.36768;
19:37:10.517,0.86597,0.40796,-0.37134;
19:37:10.527,0.86841,0.40845,-0.37427;
19:37:10.537,0.86572,0.41211,-0.37476;
19:37:10.547,0.86230,0.41699,-0.37427;
19:37:10.557,0.86255,0.42285,-0.37573;
19:37:10.567,0.86694,0.42847,-0.37793;
19:37:10.577,0.86523,0.42822,-0.37964;
19:37:10.587,0.86768,0.41943,-0.37427;
19:37:10.597,0.87061,0.41626,-0.37085;
19:37:10.607,0.88062,0.41357,-0.36768;
19:37:10.617,0.88428,0.40601,-0.35962;
19:37:10.627,0.88818,0.41016,-0.36157;
19:37:10.637,0.89722,0.42163,-0.37109;
19:37:10.647,0.90894,0.42285,-0.38306;
19:37:10.657,0.92212,0.42236,-0.38843;
19:37:10.667,0.93213,0.42578,-0.39063;
19:37:10.677,0.94336,0.44263,-0.39160;
19:37:10.687,0.94482,0.47021,-0.39380;
19:37:10.697,0.95093,0.48877,-0.40576;
19:37:10.707,0.96460,0.49561,-0.42676;
19:37:10.717,0.98926,0.51074,-0.46704;
19:37:10.727,1.01563,0.52686,-0.50317;
19:37:10.737,1.04053,0.53809,-0.54590;
19:37:10.747,1.06396,0.56299,-0.57666;
19:37:10.757,1.08154,0.58984,-0.59155;
19:37:10.767,1.10107,0.62280,-0.60889;
19:37:10.777,1.12329,0.64893,-0.60498;
19:37:10.787,1.15527,0.68848,-0.61646;
19:37:10.797,1.20508,0.73779,-0.62866;
19:37:10.807,1.26392,0.76147,-0.63477;
19:37:10.817,1.31592,0.77002,-0.61865;
19:37:10.827,1.35791,0.79761,-0.58667;
19:37:10.837,1.39429,0.90210,-0.58545;
19:37:10.847,1.43628,1.03174,-0.57959;
19:37:10.857,1.49487,1.10107,-0.56396;
19:37:10.867,1.54883,1.13672,-0.57349;
19:37:10.877,1.58374,1.13989,-0.57690;
19:37:10.887,1.59302,1.06763,-0.54175;
19:37:10.897,1.56030,0.99805,-0.44678;
19:37:10.907,1.51733,1.06299,-0.31030;
19:37:10.917,1.49292,1.27222,-0.20532;
19:37:10.927,1.51147,1.40356,-0.17407;
19:37:10.937,1.30103,1.28076,-0.19165;
19:37:10.947,1.07251,1.41064,0.06201;
19:37:10.957,0.97852,1.32813,0.19995;
19:37:10.967,0.82813,1.13232,0.32837;
19:37:10.977,0.58984,0.97388,0.53271;
19:37:10.987,0.34937,0.82104,0.79321;
19:37:10.997,0.14185,0.54346,0.89941;
19:37:11.007,-0.05786,0.28638,0.83179;
19:37:11.017,-0.17285,0.13379,0.68604;
19:37:11.027,-0.21021,0.10938,0.50757;
19:37:11.037,-0.21484,0.19385,0.34863;
19:37:11.047,-0.18774,0.22192,0.26855;
19:37:11.057,-0.19629,0.15527,0.22559;
19:37:11.067,-0.23169,-0.01758,0.16309;
19:37:11.077,-0.22925,-0.23071,0.09888;
19:37:11.087,-0.19751,-0.40039,0.04248;
19:37:11.097,-0.15356,-0.49268,-0.01392;
19:37:11.107,-0.12378,-0.51123,-0.06104;
19:37:11.117,-0.06860,-0.46631,-0.14111;
19:37:11.127,-0.04419,-0.40308,-0.37573;
19:37:11.137,0.05420,0.22876,-0.83569;
19:37:11.147,-0.24097,0.63745,-0.63477;
19:37:11.157,-0.24414,-0.83301,-0.54761;
19:37:11.167,0.30396,-1.48315,-1.48877;
19:37:11.177,1.19482,-0.62012,-3.35522;
19:37:11.187,1.15112,-0.29956,-1.96338;
19:37:11.197,0.70776,0.91089,-0.47266;
19:37:11.207,0.26636,1.84644,0.05933;
19:37:11.217,0.02002,1.99463,-0.29199;
19:37:11.227,0.14526,1.53979,-0.66870;
19:37:11.237,0.35815,1.21924,-0.55957;
19:37:11.247,0.46558,1.05176,-0.29858;
19:37:11.257,0.40332,1.03345,-0.07178;
19:37:11.267,0.33838,1.09595,-0.01196;
19:37:11.277,0.46851,1.07837,-0.50098;
19:37:11.287,0.45850,0.71582,-0.29565;
19:37:11.297,0.40234,0.70337,-0.22046;
19:37:11.307,0.40210,0.71338,-0.15625;
19:37:11.317,0.51929,0.77100,-0.22266;
19:37:11.327,0.65088,0.78955,-0.22632;
19:37:11.337,0.67798,0.82251,-0.17261;
19:37:11.347,0.52319,0.84766,-0.06372;
19:37:11.357,0.60254,0.87061,-0.20630;
19:37:11.367,0.65332,0.75830,-0.20337;
19:37:11.377,0.62207,0.71680,-0.13916;
19:37:11.387,0.58374,0.70679,-0.11523;
19:37:11.397,0.56226,0.71069,-0.18286;
19:37:11.407,0.57300,0.68164,-0.22437;
19:37:11.417,0.56519,0.68237,-0.25415;
19:37:11.427,0.55249,0.74902,-0.26416;
19:37:11.437,0.56567,0.75000,-0.26904;
19:37:11.447,0.61182,0.78296,-0.22021;
19:37:11.457,0.63135,0.80688,-0.09692;
19:37:11.467,0.59668,0.76758,0.01782;
19:37:11.477,0.66113,0.79370,-0.05786;
19:37:11.487,0.78711,0.73340,-0.17822;
19:37:11.497,0.79932,0.68115,-0.09424;
19:37:11.507,0.78638,0.70386,-0.03345;
19:37:11.517,0.84229,0.75195,-0.10352;
19:37:11.527,0.90308,0.71387,-0.14648;
19:37:11.537,0.89746,0.68237,-0.10596;
19:37:11.547,0.85400,0.73608,-0.01758;
19:37:11.557,0.81787,0.72656,0.00854;
19:37:11.567,0.86743,0.76245,-0.08936;
19:37:11.577,0.95825,0.77319,-0.14795;
19:37:11.587,1.00391,0.77808,-0.15356;
19:37:11.597,1.02930,0.90210,-0.12915;
19:37:11.607,1.00146,0.94897,-0.04126;
19:37:11.617,1.16821,0.75098,-0.11108;
19:37:11.627,1.21289,0.59131,0.29175;
19:37:11.637,1.15674,0.62744,0.22534;
19:37:11.647,1.19238,0.62427,-0.08423;
19:37:11.657,1.27246,0.61938,-0.18945;
19:37:11.667,1.27612,0.59863,-0.08447;
19:37:11.677,1.25000,0.51172,0.02734;
19:37:11.687,1.21045,0.42163,0.12207;
19:37:11.697,1.15942,0.42603,0.25195;
19:37:11.707,1.13818,0.51489,0.31104;
19:37:11.717,1.15088,0.61035,0.25586;
19:37:11.727,1.19092,0.60791,0.25830;
19:37:11.737,1.21143,0.54321,0.33740;
19:37:11.747,1.19067,0.53589,0.39648;
19:37:11.757,1.17310,0.61328,0.41504;
19:37:11.767,1.13037,0.51709,0.34863;
19:37:11.777,1.07300,0.35303,0.24561;
19:37:11.787,1.06763,0.19165,0.15332;
19:37:11.797,1.09106,0.02271,-0.01270;
19:37:11.807,1.10376,0.04028,-0.18091;
19:37:11.817,1.06958,0.21240,-0.19312;
19:37:11.827,1.03589,0.23486,-0.17139;
19:37:11.837,1.02271,0.17456,-0.25879;
19:37:11.847,1.00537,0.21191,-0.27930;
19:37:11.857,0.99438,0.20166,-0.27539;
19:37:11.867,0.95483,0.17480,-0.26685;
19:37:11.877,0.89771,0.12183,-0.23877;
19:37:11.887,0.82715,0.16235,-0.24634;
19:37:11.897,0.75903,0.26758,-0.22778;
19:37:11.907,0.68701,0.26440,-0.19800;
19:37:11.917,0.63989,0.14429,-0.14893;
19:37:11.927,0.63135,0.17603,-0.08203;
19:37:11.937,0.63477,0.25342,-0.07178;
19:37:11.947,0.65161,0.23706,0.04541;
19:37:11.957,0.61914,0.31836,0.23389;
19:37:11.967,0.60010,0.44019,0.26196;
19:37:11.977,0.59009,0.41309,0.30396;
19:37:11.987,0.64453,0.35498,0.29297;
19:37:11.997,0.74878,0.28516,0.24585;
19:37:12.007,0.85254,0.25537,0.25098;
19:37:12.017,0.93604,0.27197,0.25439;
19:37:12.027,0.99780,0.27612,0.18896;
19:37:12.037,1.06274,0.26782,0.12988;
19:37:12.047,1.15894,0.21582,0.11719;
19:37:12.057,1.14917,0.22192,0.15674;
19:37:12.067,1.12451,0.24951,0.17603;
19:37:12.077,1.09497,0.26831,0.17480;
19:37:12.087,1.05518,0.27686,0.22949;
19:37:12.097,0.98975,0.27832,0.35474;
19:37:12.107,0.92139,0.27295,0.50269;
19:37:12.117,0.85010,0.30615,0.60327;
19:37:12.127,0.81567,0.41406,0.58350;
19:37:12.137,0.82349,0.46362,0.48779;
19:37:12.147,0.82617,0.39868,0.36572;
19:37:12.157,0.83496,0.32690,0.23315;
19:37:12.167,0.82666,0.29785,0.12085;
19:37:12.177,0.79688,0.21265,0.03296;
19:37:12.187,0.74268,0.11670,-0.00610;
19:37:12.197,0.69751,0.10571,-0.03174;
19:37:12.207,0.70386,0.13599,-0.05737;
19:37:12.217,0.73950,0.18237,-0.07837;
19:37:12.227,0.77026,0.22559,-0.10229;
19:37:12.237,0.78613,0.26953,-0.10913;
19:37:12.247,0.78955,0.29736,-0.11157;
19:37:12.257,0.78320,0.31714,-0.10864;
19:37:12.267,0.77393,0.32031,-0.10693;
19:37:12.277,0.77417,0.31519,-0.11230;
19:37:12.287,0.79541,0.30981,-0.15039;
19:37:12.297,0.95947,0.29419,-0.16870;
19:37:12.307,0.97559,0.28809,-0.11987;
19:37:12.317,0.96216,0.30664,-0.10889;
19:37:12.327,0.97217,0.33325,-0.12549;
19:37:12.337,0.99463,0.34839,-0.14893;
19:37:12.347,1.00146,0.35059,-0.17993;
19:37:12.357,0.98047,0.33154,-0.22974;
19:37:12.367,0.97949,0.30957,-0.24072;
19:37:12.377,0.99268,0.28540,-0.23120;
19:37:12.387,0.99731,0.26880,-0.19507;
19:37:12.397,0.99292,0.25757,-0.15747;
19:37:12.407,0.98486,0.25391,-0.14331;
19:37:12.417,0.98193,0.25098,-0.12988;
19:37:12.427,0.97949,0.24048,-0.11206;
19:37:12.437,0.96899,0.23340,-0.09888;
19:37:12.447,0.95386,0.22266,-0.08130;
19:37:12.457,0.93457,0.21216,-0.08472;
19:37:12.467,0.90479,0.22070,-0.10034;
19:37:12.477,0.87329,0.24243,-0.11572;
19:37:12.487,0.84131,0.27271,-0.13696;
19:37:12.497,0.83057,0.30542,-0.16138;
19:37:12.507,0.83862,0.32251,-0.17554;
19:37:12.517,0.83423,0.32153,-0.17334;
19:37:12.527,0.81689,0.30957,-0.16943;
19:37:12.537,0.79126,0.30469,-0.16528;
19:37:12.547,0.77124,0.31348,-0.15723;
19:37:12.557,0.76123,0.32373,-0.14355;
19:37:12.567,0.75806,0.32764,-0.13232;
19:37:12.577,0.76001,0.32935,-0.12695;
19:37:12.587,0.75830,0.33423,-0.12964;
19:37:12.597,0.74780,0.33472,-0.12305;
19:37:12.607,0.72217,0.33936,-0.10010;
19:37:12.617,0.69727,0.34546,-0.06860;
19:37:12.627,0.65430,0.37061,-0.06519;
19:37:12.637,0.68506,0.38208,-0.08838;
19:37:12.647,0.73047,0.37817,-0.07813;
19:37:12.657,0.77686,0.37695,-0.06323;
19:37:12.667,0.81982,0.37842,-0.04614;
19:37:12.677,0.85864,0.37183,-0.01709;
19:37:12.687,0.88574,0.36426,0.02100;
19:37:12.697,0.93140,0.35327,0.06348;
19:37:12.707,1.02734,0.34497,0.10352;
19:37:12.717,1.35547,0.36450,0.18164;
19:37:12.727,1.51416,0.36523,0.21143;
19:37:12.737,1.62109,0.37427,0.23535;
19:37:12.747,1.63745,0.39136,0.24194;
19:37:12.757,1.54810,0.39868,0.25146;
19:37:12.767,1.40527,0.40063,0.26807;
19:37:12.777,1.28833,0.40698,0.27222;
19:37:12.787,1.21753,0.41772,0.25049;
19:37:12.797,1.17407,0.43286,0.20532;
19:37:12.807,1.15479,0.44800,0.14966;
19:37:12.817,1.16479,0.45483,0.10522;
19:37:12.827,1.21509,0.43921,0.09058;
19:37:12.837,1.26709,0.40918,0.12451;
19:37:12.847,1.27466,0.38159,0.18750;
19:37:12.857,1.25342,0.36816,0.24414;
19:37:12.867,1.22217,0.37109,0.28809;
19:37:12.877,1.21362,0.36084,0.33130;
19:37:12.887,1.22168,0.32886,0.37744;
19:37:12.897,1.21533,0.29321,0.42578;
19:37:12.907,1.19922,0.25903,0.44751;
19:37:12.917,1.17285,0.23096,0.44165;
19:37:12.927,1.13550,0.21143,0.42358;
19:37:12.937,1.08545,0.20483,0.38525;
19:37:12.947,1.04956,0.20752,0.35400;
19:37:12.957,1.03271,0.20703,0.33789;
19:37:12.967,1.02075,0.21094,0.33643;
19:37:12.977,1.03589,0.23462,0.33838;
19:37:12.987,1.01904,0.23218,0.32666;
19:37:12.997,1.00317,0.21362,0.33740;
19:37:13.007,0.98535,0.18774,0.35303;
19:37:13.017,0.97314,0.16626,0.36035;
19:37:13.027,0.97510,0.15796,0.37524;
19:37:13.037,0.97070,0.15576,0.38306;
19:37:13.047,0.95239,0.16064,0.37012;
19:37:13.057,0.92456,0.15918,0.34619;
19:37:13.067,0.90527,0.14966,0.30664;
19:37:13.077,0.89844,0.15088,0.26489;
19:37:13.087,0.88989,0.15649,0.23779;
19:37:13.097,0.87622,0.16772,0.21777;
19:37:13.107,0.85571,0.18359,0.21289;
19:37:13.117,0.84692,0.19824,0.21069;
19:37:13.127,0.85522,0.20996,0.21997;
19:37:13.137,0.86914,0.21240,0.23315;
19:37:13.147,0.88013,0.21362,0.24805;
19:37:13.157,0.89380,0.21924,0.25537;
19:37:13.167,0.92651,0.21997,0.24072;
19:37:13.177,0.97852,0.21826,0.21631;
19:37:13.187,1.03613,0.26782,0.18286;
19:37:13.197,1.08618,0.38867,0.12622;
19:37:13.207,1.05273,0.42407,0.10205;
19:37:13.217,0.99854,0.45850,0.07593;
19:37:13.227,0.95215,0.48584,0.04248;
19:37:13.237,0.91821,0.48901,0.00195;
19:37:13.247,0.90381,0.50122,-0.04346;
19:37:13.257,0.91382,0.52222,-0.11743;
19:37:13.267,0.92725,0.52954,-0.13574;
19:37:13.277,0.94043,0.53784,-0.15186;
19:37:13.287,0.95142,0.56104,-0.16626;
19:37:13.297,0.95654,0.59985,-0.18164;
19:37:13.307,0.96582,0.63037,-0.22168;
19:37:13.317,1.00464,0.61621,-0.24561;
19:37:13.327,0.98193,0.57666,-0.24170;
19:37:13.337,0.95020,0.57764,-0.23901;
19:37:13.347,0.90991,0.58325,-0.23657;
19:37:13.357,0.87817,0.57446,-0.24170;
19:37:13.367,0.85107,0.57886,-0.24561;
19:37:13.377,0.82178,0.58569,-0.24683;
19:37:13.387,0.79077,0.59399,-0.24609;
19:37:13.397,0.76025,0.57568,-0.23633;
19:37:13.407,0.72681,0.54883,-0.22290;
19:37:13.417,0.70459,0.53833,-0.20435;
19:37:13.427,0.69336,0.53320,-0.19336;
19:37:13.437,0.68628,0.53149,-0.17920;
19:37:13.447,0.68530,0.53687,-0.15747;
19:37:13.457,0.66846,0.54541,-0.13306;
19:37:13.467,0.65283,0.55347,-0.11597;
19:37:13.477,0.63574,0.54688,-0.10376;
19:37:13.487,0.61963,0.53003,-0.08447;
19:37:13.497,0.60132,0.51587,-0.06787;
19:37:13.507,0.58325,0.50610,-0.04688;
19:37:13.517,0.56982,0.50049,-0.02173;
19:37:13.527,0.57178,0.49683,0.00269;
19:37:13.537,0.59155,0.48901,0.02441;
19:37:13.547,0.62134,0.47534,0.04321;
19:37:13.557,0.65186,0.46387,0.06421;
19:37:13.567,0.68311,0.46460,0.08276;
19:37:13.577,0.73193,0.48438,0.10181;
19:37:13.587,0.79810,0.49341,0.13452;
19:37:13.597,0.88696,0.49219,0.17554;
19:37:13.607,0.98999,0.50439,0.20166;
19:37:13.617,1.20117,0.56763,0.24023;
19:37:13.627,1.25537,0.57349,0.31616;
19:37:13.637,1.09937,0.52759,0.41284;
19:37:13.647,1.17651,0.48926,0.51758;
19:37:13.657,1.26074,0.45264,0.59668;
19:37:13.667,1.32593,0.40869,0.67554;
19:37:13.677,1.35645,0.37524,0.73657;
19:37:13.687,1.33618,0.36646,0.76001;
19:37:13.697,1.27783,0.37744,0.75122;
19:37:13.707,1.21484,0.39624,0.71973;
19:37:13.717,1.15332,0.41113,0.66162;
19:37:13.727,1.09912,0.40771,0.59888;
19:37:13.737,1.04419,0.39746,0.53735;
19:37:13.747,0.99976,0.39233,0.48389;
19:37:13.757,0.96289,0.40088,0.44824;
19:37:13.767,0.92651,0.41479,0.42212;
19:37:13.777,0.89355,0.42603,0.41089;
19:37:13.787,0.86621,0.43677,0.40479;
19:37:13.797,0.84985,0.44312,0.39893;
19:37:13.807,0.83887,0.44531,0.39087;
19:37:13.817,0.83203,0.44897,0.37402;
19:37:13.827,0.82227,0.45435,0.35010;
19:37:13.837,0.80933,0.45972,0.32007;
19:37:13.847,0.79297,0.46411,0.29907;
19:37:13.857,0.78345,0.45850,0.28711;
19:37:13.867,0.78833,0.45166,0.27930;
19:37:13.877,0.80493,0.44482,0.28296;
19:37:13.887,0.85229,0.43481,0.30835;
19:37:13.897,1.06616,0.42603,0.30249;
19:37:13.907,1.29639,0.43848,0.34106;
19:37:13.917,1.37646,0.43286,0.46045;
19:37:13.927,1.36426,0.42261,0.47778;
19:37:13.937,1.33740,0.40063,0.48633;
19:37:13.947,1.30322,0.36841,0.47607;
19:37:13.957,1.25684,0.33423,0.45874;
19:37:13.967,1.18872,0.30811,0.44067;
19:37:13.977,1.11768,0.28516,0.43628;
19:37:13.987,1.04077,0.28247,0.42529;
19:37:13.997,0.95068,0.30469,0.39941;
19:37:14.007,0.85815,0.34937,0.38110;
19:37:14.017,0.76587,0.37842,0.37085;
19:37:14.027,0.67456,0.37158,0.36743;
19:37:14.037,0.58911,0.35522,0.38330;
19:37:14.047,0.51831,0.33325,0.41089;
19:37:14.057,0.46216,0.32202,0.44287;
19:37:14.067,0.41406,0.31421,0.46216;
19:37:14.077,0.38525,0.31421,0.47314;
19:37:14.087,0.37964,0.31738,0.48022;
19:37:14.097,0.39722,0.31104,0.49316;
19:37:14.107,0.46143,0.30127,0.53638;
19:37:14.117,0.56128,0.29517,0.60913;
19:37:14.127,0.67969,0.29541,0.69116;
19:37:14.137,0.80078,0.29688,0.74438;
19:37:14.147,1.06934,0.35986,0.77148;
19:37:14.157,1.18506,0.39111,0.77710;
19:37:14.167,1.26245,0.40698,0.79395;
19:37:14.177,1.30859,0.41309,0.83252;
19:37:14.187,1.36865,0.41357,0.87622;
19:37:14.197,1.44751,0.41895,0.89502;
19:37:14.207,1.50488,0.43555,0.88501;
19:37:14.217,1.50122,0.44873,0.87793;
19:37:14.227,1.43140,0.45264,0.86475;
19:37:14.237,1.17578,0.37671,0.79517;
19:37:14.247,1.11060,0.35205,0.66528;
19:37:14.257,1.10522,0.34741,0.60132;
19:37:14.267,1.10205,0.33911,0.54932;
19:37:14.277,1.08521,0.33594,0.51440;
19:37:14.287,1.05420,0.34497,0.49268;
19:37:14.297,1.01465,0.36011,0.46948;
19:37:14.307,0.97168,0.36108,0.44409;
19:37:14.317,0.91797,0.35596,0.41211;
19:37:14.327,0.86426,0.34985,0.37549;
19:37:14.337,0.81885,0.34619,0.33765;
19:37:14.347,0.77222,0.33765,0.31177;
19:37:14.357,0.72583,0.32690,0.29639;
19:37:14.367,0.68433,0.31421,0.28442;
19:37:14.377,0.65088,0.30396,0.26831;
19:37:14.387,0.61987,0.29761,0.25195;
19:37:14.397,0.58179,0.29614,0.23584;
19:37:14.407,0.54272,0.29858,0.20630;
19:37:14.417,0.51318,0.29907,0.18286;
19:37:14.427,0.49976,0.31128,0.16919;
19:37:14.437,0.50073,0.32886,0.16016;
19:37:14.447,0.51733,0.35596,0.15601;
19:37:14.457,0.57275,0.37891,0.16650;
19:37:14.467,0.67212,0.39063,0.20044;
19:37:14.477,0.81104,0.41602,0.28687;
19:37:14.487,0.97412,0.45557,0.42017;
19:37:14.497,1.29858,0.50928,0.61108;
19:37:14.507,1.36865,0.58032,0.59253;
19:37:14.517,1.33228,0.64771,0.49487;
19:37:14.527,1.25928,0.64551,0.39771;
19:37:14.537,1.25342,0.64746,0.37158;
19:37:14.547,1.32837,0.64526,0.40601;
19:37:14.557,1.42798,0.62451,0.46191;
19:37:14.567,1.49463,0.67407,0.55005;
19:37:14.577,1.31592,0.68457,0.49878;
19:37:14.587,1.24170,0.63281,0.46094;
19:37:14.597,1.14404,0.57397,0.42090;
19:37:14.607,1.03198,0.52563,0.38232;
19:37:14.617,0.91528,0.50928,0.34229;
19:37:14.627,0.79150,0.50903,0.29517;
19:37:14.637,0.66333,0.50439,0.26172;
19:37:14.647,0.53638,0.48218,0.26270;
19:37:14.657,0.41821,0.45215,0.28027;
19:37:14.667,0.31665,0.41772,0.31665;
19:37:14.677,0.24438,0.39404,0.35474;
19:37:14.687,0.19214,0.38306,0.38452;
19:37:14.697,0.16138,0.37036,0.40698;
19:37:14.707,0.16479,0.34399,0.43726;
19:37:14.717,0.20801,0.32471,0.46948;
19:37:14.727,0.30444,0.32080,0.50488;
19:37:14.737,0.45874,0.31665,0.57495;
19:37:14.747,0.64063,0.32178,0.69141;
19:37:14.757,0.81982,0.33740,0.81470;
19:37:14.767,1.19946,0.52734,0.96045;
19:37:14.777,1.38501,0.64160,0.98511;
19:37:14.787,1.45703,0.68481,0.99976;
19:37:14.797,1.43506,0.66553,1.02979;
19:37:14.807,1.42847,0.60156,1.08667;
19:37:14.817,1.46167,0.52759,1.14258;
19:37:14.827,1.48804,0.48218,1.15967;
19:37:14.837,1.48730,0.46582,1.10229;
19:37:14.847,1.47192,0.46606,0.98901;
19:37:14.857,1.45288,0.45850,0.85962;
19:37:14.867,1.41943,0.44043,0.72852;
19:37:14.877,1.37158,0.43237,0.61084;
19:37:14.887,1.28882,0.43066,0.52197;
19:37:14.897,1.18188,0.43750,0.47510;
19:37:14.907,1.06445,0.45142,0.43872;
19:37:14.917,0.80176,0.44629,0.39453;
19:37:14.927,0.68188,0.39746,0.34375;
19:37:14.937,0.62476,0.36865,0.31030;
19:37:14.947,0.57959,0.34033,0.27075;
19:37:14.957,0.54443,0.33032,0.22168;
19:37:14.967,0.52051,0.32397,0.16626;
19:37:14.977,0.49829,0.31201,0.11621;
19:37:14.987,0.46875,0.31226,0.08545;
19:37:14.997,0.41943,0.31421,0.06763;
19:37:15.007,0.36401,0.31396,0.06787;
19:37:15.017,0.30762,0.32593,0.07544;
19:37:15.027,0.27637,0.35962,0.08545;
19:37:15.037,0.28687,0.42773,0.10156;
19:37:15.047,0.89478,0.75098,0.33008;
19:37:15.057,1.41846,1.14087,0.59717;
19:37:15.067,1.65259,1.23901,0.77734;
19:37:15.077,1.70117,1.12915,0.89282;
19:37:15.087,1.53296,0.94653,0.89990;
19:37:15.097,1.36963,0.85547,0.84473;
19:37:15.107,1.38379,0.82617,0.78809;
19:37:15.117,1.50586,0.82007,0.74878;
19:37:15.127,1.58472,0.78174,0.69580;
19:37:15.137,1.55835,0.74438,0.64697;
19:37:15.147,1.49707,0.76514,0.61816;
19:37:15.157,1.42822,0.83472,0.60938;
19:37:15.167,1.35498,0.87891,0.63013;
19:37:15.177,1.28394,0.84937,0.64893;
19:37:15.187,1.20776,0.78613,0.65723;
19:37:15.197,1.13135,0.75391,0.63208;
19:37:15.207,1.05762,0.76489,0.56177;
19:37:15.217,0.83838,0.64575,0.53491;
19:37:15.227,0.64111,0.51318,0.54175;
19:37:15.237,0.56079,0.47559,0.56445;
19:37:15.247,0.49731,0.41431,0.59424;
19:37:15.257,0.44458,0.34082,0.60815;
19:37:15.267,0.40015,0.28198,0.61523;
19:37:15.277,0.36743,0.26978,0.60107;
19:37:15.287,0.34326,0.26147,0.59351;
19:37:15.297,0.32178,0.20898,0.59961;
19:37:15.307,0.30591,0.17212,0.61694;
19:37:15.317,0.30835,0.17358,0.63916;
19:37:15.327,0.33472,0.20239,0.65942;
19:37:15.337,0.38135,0.22534,0.68896;
19:37:15.347,0.43848,0.25439,0.72754;
19:37:15.357,0.49756,0.30029,0.76978;
19:37:15.367,0.57397,0.39551,0.81055;
19:37:15.377,0.81885,0.51123,0.87012;
19:37:15.387,0.94360,0.52319,0.87915;
19:37:15.397,1.05664,0.53906,0.88062;
19:37:15.407,1.16699,0.57617,0.86572;
19:37:15.417,1.25903,0.61597,0.85278;
19:37:15.427,1.29810,0.64160,0.85767;
19:37:15.437,1.29663,0.62964,0.86230;
19:37:15.447,1.27686,0.58203,0.85425;
19:37:15.457,1.25122,0.53027,0.82251;
19:37:15.467,1.22046,0.50659,0.75879;
19:37:15.477,1.18359,0.49756,0.67700;
19:37:15.487,1.13574,0.48779,0.57861;
19:37:15.497,1.06665,0.48267,0.47266;
19:37:15.507,0.99902,0.47876,0.38208;
19:37:15.517,0.93555,0.47705,0.31396;
19:37:15.527,0.86841,0.47778,0.26147;
19:37:15.537,0.80225,0.46826,0.20776;
19:37:15.547,0.70532,0.45337,0.10693;
19:37:15.557,0.66479,0.43311,0.04565;
19:37:15.567,0.65015,0.43970,0.01294;
19:37:15.577,0.63965,0.43457,-0.01611;
19:37:15.587,0.62500,0.42139,-0.03931;
19:37:15.597,0.61133,0.41553,-0.05591;
19:37:15.607,0.59521,0.40845,-0.06445;
19:37:15.617,0.58472,0.39624,-0.06665;
19:37:15.627,0.58667,0.39624,-0.06812;
19:37:15.637,0.60010,0.39209,-0.06836;
19:37:15.647,0.63599,0.38379,-0.06396;
19:37:15.657,0.69775,0.37500,-0.04077;
19:37:15.667,0.79639,0.37158,0.00439;
19:37:15.677,0.92798,0.39868,0.07373;
19:37:15.687,1.07178,0.45068,0.17017;
19:37:15.697,1.27417,0.46851,0.32129;
19:37:15.707,1.28394,0.45703,0.32983;
19:37:15.717,1.26685,0.45557,0.28906;
19:37:15.727,1.25903,0.45972,0.21973;
19:37:15.737,1.28589,0.45898,0.14893;
19:37:15.747,1.34790,0.44604,0.09302;
19:37:15.757,1.38574,0.41846,0.05078;
19:37:15.767,1.37378,0.40698,0.01880;
19:37:15.777,1.32251,0.41382,-0.00317;
19:37:15.787,1.25317,0.44971,-0.00806;
19:37:15.797,1.17676,0.49707,-0.00122;
19:37:15.807,1.09814,0.52734,0.03003;
19:37:15.817,1.03491,0.54663,0.05493;
19:37:15.827,0.99121,0.55005,0.06372;
19:37:15.837,0.95215,0.54102,0.06665;
19:37:15.847,0.91040,0.52295,0.05322;
19:37:15.857,0.87183,0.50342,0.03589;
19:37:15.867,0.83154,0.47412,0.02124;
19:37:15.877,0.79907,0.44751,0.00781;
19:37:15.887,0.75830,0.40527,-0.00732;
19:37:15.897,0.75342,0.36719,0.01563;
