time,acc_x,acc_y,acc_z
18:42:05.243,1.02173,0.06665,0.02075;
18:42:05.253,1.02222,0.08569,0.02100;
18:42:05.263,1.02051,0.09302,0.01807;
18:42:05.273,1.02075,0.13232,0.00122;
18:42:05.283,1.02295,0.15918,0.00562;
18:42:05.293,1.02197,0.16113,0.00171;
18:42:05.303,1.02075,0.14648,-0.01465;
18:42:05.313,1.01953,0.14575,-0.01636;
18:42:05.323,1.02026,0.12622,-0.01196;
18:42:05.333,1.02197,0.12134,0.02954;
18:42:05.343,1.02075,0.08447,0.02197;
18:42:05.353,1.01953,0.06982,0.00464;
18:42:05.363,1.01660,0.07544,-0.01074;
18:42:05.373,1.01465,0.07544,0.00659;
18:42:05.383,1.01855,0.07202,0.02026;
18:42:05.393,1.01904,0.05493,0.03564;
18:42:05.403,1.01904,0.06885,0.03564;
18:42:05.413,1.01904,0.04199,0.04346;
18:42:05.423,1.02026,0.06079,0.03589;
18:42:05.433,1.02417,0.08081,0.03491;
18:42:05.443,1.02173,0.06323,0.03223;
18:42:05.453,1.01514,0.08691,-0.00586;
18:42:05.463,1.01245,0.06982,-0.02002;
18:42:05.473,1.02197,0.08643,-0.00537;
18:42:05.483,1.02173,0.07544,0.02490;
18:42:05.493,1.02515,0.08618,0.03418;
18:42:05.503,1.02905,0.09521,0.03125;
18:42:05.513,1.02637,0.09863,0.02808;
18:42:05.523,1.01953,0.09375,0.01221;
18:42:05.533,1.01611,0.08984,-0.01343;
18:42:05.543,1.01123,0.05322,-0.02441;
18:42:05.553,1.01392,0.05225,-0.02441;
18:42:05.563,1.01514,0.09302,-0.00928;
18:42:05.573,1.02026,0.08472,0.00806;
18:42:05.583,1.02417,0.11768,0.01538;
18:42:05.593,1.02124,0.12744,0.00220;
18:42:05.603,1.02173,0.13525,-0.01245;
18:42:05.613,1.01880,0.12720,-0.00928;
18:42:05.623,1.02515,0.12402,0.00732;
18:42:05.633,1.01904,0.12793,-0.00415;
18:42:05.643,1.02100,0.13013,-0.01001;
18:42:05.653,1.02100,0.12915,-0.00977;
18:42:05.663,1.01782,0.13403,-0.00269;
18:42:05.673,1.01758,0.11353,0.00244;
18:42:05.683,1.01416,0.11621,-0.00635;
18:42:05.693,1.00928,0.08813,-0.01636;
18:42:05.703,1.01196,0.11890,-0.03711;
18:42:05.713,1.01709,0.14673,-0.02295;
18:42:05.723,1.01782,0.14063,-0.01831;
18:42:05.733,1.01904,0.15063,-0.01953;
18:42:05.743,1.01709,0.12524,-0.01489;
18:42:05.753,1.01587,0.14087,-0.04517;
18:42:05.763,1.01172,0.14160,-0.04004;
18:42:05.773,1.01294,0.12915,-0.04590;
18:42:05.783,1.01733,0.14673,-0.04834;
18:42:05.793,1.01465,0.15332,-0.03101;
18:42:05.803,1.01538,0.15894,-0.03027;
18:42:05.813,1.01611,0.15479,-0.02002;
18:42:05.823,1.01050,0.16235,-0.06445;
18:42:05.833,1.01270,0.14893,-0.06128;
18:42:05.843,1.01367,0.13647,-0.05664;
18:42:05.853,1.01367,0.14941,-0.05396;
18:42:05.863,1.01514,0.16479,-0.04297;
18:42:05.873,1.01416,0.16284,-0.04053;
18:42:05.883,1.01392,0.15747,-0.01782;
18:42:05.893,1.01440,0.15552,-0.06006;
18:42:05.903,1.00879,0.15845,-0.07861;
18:42:05.913,1.01147,0.16064,-0.06812;
18:42:05.923,1.01099,0.16455,-0.06763;
18:42:05.933,1.01001,0.16284,-0.06470;
18:42:05.943,1.00952,0.17188,-0.06616;
18:42:05.953,1.01221,0.17725,-0.04785;
18:42:05.963,1.01514,0.17236,-0.05542;
18:42:05.973,1.01367,0.17749,-0.06714;
18:42:05.983,1.00879,0.18066,-0.07227;
18:42:05.993,1.00562,0.18140,-0.09058;
18:42:06.003,1.00684,0.16406,-0.09180;
18:42:06.013,1.00586,0.14648,-0.10425;
18:42:06.023,1.00586,0.15234,-0.10327;
18:42:06.033,1.00757,0.15601,-0.09668;
18:42:06.043,1.00537,0.16455,-0.09888;
18:42:06.053,1.00952,0.16699,-0.08325;
18:42:06.063,1.01318,0.16260,-0.07886;
18:42:06.073,1.01050,0.15869,-0.07690;
18:42:06.083,1.00806,0.16504,-0.08887;
18:42:06.093,1.00562,0.16724,-0.10156;
18:42:06.103,1.00366,0.17749,-0.12354;
18:42:06.113,1.00513,0.17603,-0.12134;
18:42:06.123,1.00684,0.17456,-0.12280;
18:42:06.133,1.00610,0.17725,-0.11694;
18:42:06.143,1.00610,0.17676,-0.12451;
18:42:06.153,1.00610,0.16919,-0.11670;
18:42:06.163,1.00830,0.16675,-0.11255;
18:42:06.173,1.00415,0.17212,-0.11475;
18:42:06.183,1.00342,0.16919,-0.12402;
18:42:06.193,1.00366,0.16504,-0.12036;
18:42:06.203,1.00488,0.16943,-0.13330;
18:42:06.213,1.00098,0.17798,-0.15088;
18:42:06.223,1.00146,0.17993,-0.15747;
18:42:06.233,0.99902,0.18872,-0.16382;
18:42:06.243,0.99854,0.18286,-0.16235;
18:42:06.253,0.99951,0.17236,-0.15332;
18:42:06.263,0.99878,0.16724,-0.16211;
18:42:06.273,0.99878,0.16382,-0.16528;
18:42:06.283,0.99854,0.15649,-0.16333;
18:42:06.293,1.00073,0.15747,-0.17236;
18:42:06.303,1.00171,0.15063,-0.15649;
18:42:06.313,1.00024,0.15576,-0.16602;
18:42:06.323,0.99585,0.16309,-0.16309;
18:42:06.333,0.99805,0.14722,-0.17065;
18:42:06.343,0.99927,0.16699,-0.19702;
18:42:06.353,0.99927,0.19238,-0.18945;
18:42:06.363,0.99487,0.20117,-0.19141;
18:42:06.373,0.99512,0.17407,-0.17871;
18:42:06.383,0.99463,0.18164,-0.20264;
18:42:06.393,0.99023,0.16724,-0.21118;
18:42:06.403,0.99683,0.15723,-0.21631;
18:42:06.413,0.99536,0.18823,-0.21655;
18:42:06.423,0.99072,0.17725,-0.21216;
18:42:06.433,0.99316,0.16968,-0.21045;
18:42:06.443,0.98608,0.12939,-0.16846;
18:42:06.453,0.98657,0.15479,-0.24341;
18:42:06.463,0.95850,0.23999,-0.32837;
18:42:06.473,0.98950,0.19653,-0.34546;
18:42:06.483,1.02051,0.17847,-0.23364;
18:42:06.493,1.04736,0.10522,-0.21143;
18:42:06.503,1.07422,0.03784,-0.24487;
18:42:06.513,1.10620,0.04663,-0.31470;
18:42:06.523,1.13892,0.13428,-0.46606;
18:42:06.533,1.14502,0.24805,-0.54150;
18:42:06.543,1.24170,0.38574,-0.49243;
18:42:06.553,1.39697,0.52319,-0.52563;
18:42:06.563,1.51929,0.71436,-0.52637;
18:42:06.573,1.50562,0.87866,-0.50903;
18:42:06.583,1.33594,1.00586,-0.46094;
18:42:06.593,1.25122,1.04395,-0.31323;
18:42:06.603,1.15869,0.96680,-0.07446;
18:42:06.613,0.73193,0.97583,0.16968;
18:42:06.623,0.71045,1.04272,0.21436;
18:42:06.633,0.76147,0.84717,0.24390;
18:42:06.643,0.81201,0.59741,0.20996;
18:42:06.653,0.70313,0.61548,0.12036;
18:42:06.663,0.54150,0.69434,0.04932;
18:42:06.673,0.45142,0.68848,-0.01025;
18:42:06.683,0.41406,0.65820,-0.06519;
18:42:06.693,0.40259,0.63721,-0.10913;
18:42:06.703,0.40674,0.61938,-0.16748;
18:42:06.713,0.37061,0.55249,-0.22705;
18:42:06.723,0.31494,0.46899,-0.25952;
18:42:06.733,0.27954,0.44653,-0.25977;
18:42:06.743,0.27148,0.48584,-0.28247;
18:42:06.753,0.14038,0.60229,-0.21973;
18:42:06.763,0.29907,0.88501,-0.14648;
18:42:06.773,0.47998,0.99927,-0.26953;
18:42:06.783,0.33862,0.71777,-0.75244;
18:42:06.793,0.48120,0.89746,-0.61938;
18:42:06.803,0.55298,0.77710,-0.59155;
18:42:06.813,0.53320,0.60547,-0.56274;
18:42:06.823,0.50903,0.46606,-0.54858;
18:42:06.833,0.49585,0.40479,-0.49976;
18:42:06.843,0.54077,0.45874,-0.53345;
18:42:06.853,0.60376,0.54346,-0.66528;
18:42:06.863,0.65747,0.60840,-0.72485;
18:42:06.873,0.64893,0.66846,-0.68237;
18:42:06.883,0.63770,0.64697,-0.63330;
18:42:06.893,0.65698,0.61133,-0.59497;
18:42:06.903,0.66553,0.56274,-0.58667;
18:42:06.913,0.66455,0.48096,-0.60303;
18:42:06.923,0.67188,0.50171,-0.59937;
18:42:06.933,0.65527,0.53467,-0.59180;
18:42:06.943,0.63379,0.52954,-0.53955;
18:42:06.953,0.63452,0.53540,-0.49048;
18:42:06.963,0.65015,0.52246,-0.47559;
18:42:06.973,0.70044,0.50366,-0.46118;
18:42:06.983,0.74634,0.50220,-0.48657;
18:42:06.993,0.74731,0.62061,-0.55420;
18:42:07.003,0.75806,0.63477,-0.54932;
18:42:07.013,0.74707,0.62231,-0.52661;
18:42:07.023,0.71948,0.61475,-0.50439;
18:42:07.033,0.70996,0.61621,-0.50977;
18:42:07.043,0.71021,0.59619,-0.53394;
18:42:07.053,0.67969,0.60522,-0.55811;
18:42:07.063,0.66479,0.62280,-0.57031;
18:42:07.073,0.65991,0.64038,-0.57178;
18:42:07.083,0.63477,0.65015,-0.57007;
18:42:07.093,0.63647,0.62500,-0.56079;
18:42:07.103,0.65186,0.61597,-0.56885;
18:42:07.113,0.60010,0.67798,-0.58154;
18:42:07.123,0.59375,0.68677,-0.57251;
18:42:07.133,0.58691,0.67163,-0.57202;
18:42:07.143,0.57959,0.65771,-0.57568;
18:42:07.153,0.57959,0.67212,-0.57080;
18:42:07.163,0.57031,0.69263,-0.57690;
18:42:07.173,0.57202,0.69238,-0.58081;
18:42:07.183,0.57837,0.65991,-0.58008;
18:42:07.193,0.57764,0.63721,-0.57910;
18:42:07.203,0.60010,0.61475,-0.57397;
18:42:07.213,0.58472,0.61108,-0.56982;
18:42:07.223,0.57227,0.62695,-0.56665;
18:42:07.233,0.59399,0.60474,-0.57837;
18:42:07.243,0.59424,0.58179,-0.60522;
18:42:07.253,0.59546,0.57300,-0.61255;
18:42:07.263,0.60425,0.56226,-0.58887;
18:42:07.273,0.60205,0.53076,-0.59375;
18:42:07.283,0.59082,0.54858,-0.61694;
18:42:07.293,0.59326,0.56543,-0.61987;
18:42:07.303,0.59180,0.57764,-0.61548;
18:42:07.313,0.58618,0.57739,-0.61450;
18:42:07.323,0.59229,0.56860,-0.60449;
18:42:07.333,0.59570,0.55249,-0.60913;
18:42:07.343,0.61108,0.53540,-0.63086;
18:42:07.353,0.63477,0.57837,-0.66626;
18:42:07.363,0.68018,0.63623,-0.49561;
18:42:07.373,0.64795,0.62280,-0.54492;
18:42:07.383,0.64478,0.62744,-0.57178;
18:42:07.393,0.64502,0.61157,-0.58301;
18:42:07.403,0.63989,0.60107,-0.57300;
18:42:07.413,0.62695,0.61621,-0.55981;
18:42:07.423,0.60034,0.61401,-0.53491;
18:42:07.433,0.58276,0.58545,-0.51978;
18:42:07.443,0.58350,0.58813,-0.52148;
18:42:07.453,0.56982,0.61401,-0.52466;
18:42:07.463,0.54150,0.62109,-0.52515;
18:42:07.473,0.52271,0.62036,-0.54321;
18:42:07.483,0.47998,0.61230,-0.54028;
18:42:07.493,0.47241,0.57104,-0.53857;
18:42:07.503,0.47974,0.56934,-0.54736;
18:42:07.513,0.48438,0.58618,-0.55957;
18:42:07.523,0.48926,0.61621,-0.56787;
18:42:07.533,0.47046,0.63647,-0.58276;
18:42:07.543,0.44824,0.63574,-0.60498;
18:42:07.553,0.44604,0.64160,-0.62378;
18:42:07.563,0.44141,0.64331,-0.62207;
18:42:07.573,0.44214,0.64233,-0.61548;
18:42:07.583,0.43579,0.65137,-0.61108;
18:42:07.593,0.43091,0.65454,-0.59790;
18:42:07.603,0.44482,0.64893,-0.58862;
18:42:07.613,0.46362,0.66919,-0.60010;
18:42:07.623,0.47754,0.71094,-0.62109;
18:42:07.633,0.47559,0.73267,-0.63818;
18:42:07.643,0.46289,0.72607,-0.63330;
18:42:07.653,0.46411,0.70190,-0.62427;
18:42:07.663,0.46338,0.68579,-0.60815;
18:42:07.673,0.46411,0.67725,-0.59619;
18:42:07.683,0.46240,0.67847,-0.59033;
18:42:07.693,0.46265,0.67944,-0.59424;
18:42:07.703,0.46191,0.67969,-0.59839;
18:42:07.713,0.46240,0.67505,-0.59131;
18:42:07.723,0.45825,0.67114,-0.58374;
18:42:07.733,0.45557,0.67188,-0.57959;
18:42:07.743,0.45386,0.66724,-0.58521;
18:42:07.753,0.45728,0.66333,-0.58813;
18:42:07.763,0.45825,0.66772,-0.59277;
18:42:07.773,0.45581,0.67944,-0.60718;
18:42:07.783,0.44678,0.69458,-0.61987;
18:42:07.793,0.43994,0.69849,-0.62402;
18:42:07.803,0.43726,0.70044,-0.62500;
18:42:07.813,0.43140,0.70337,-0.63184;
18:42:07.823,0.42163,0.70581,-0.64014;
18:42:07.833,0.41357,0.71143,-0.64771;
18:42:07.843,0.41382,0.71436,-0.66162;
18:42:07.853,0.41138,0.72241,-0.67041;
18:42:07.863,0.40381,0.72339,-0.66724;
18:42:07.873,0.40063,0.73218,-0.65454;
18:42:07.883,0.39868,0.74121,-0.64575;
18:42:07.893,0.39746,0.74243,-0.63794;
18:42:07.903,0.39819,0.73877,-0.63281;
18:42:07.913,0.39771,0.72461,-0.62769;
18:42:07.923,0.40015,0.71948,-0.60864;
18:42:07.933,0.40674,0.71924,-0.58789;
18:42:07.943,0.41846,0.72656,-0.58325;
18:42:07.953,0.43555,0.73218,-0.58301;
18:42:07.963,0.45703,0.72705,-0.57910;
18:42:07.973,0.46777,0.73218,-0.57642;
18:42:07.983,0.46948,0.72949,-0.56665;
18:42:07.993,0.47900,0.72290,-0.55737;
18:42:08.003,0.48560,0.72070,-0.54395;
18:42:08.013,0.48486,0.70850,-0.53638;
18:42:08.023,0.48657,0.69556,-0.53003;
18:42:08.033,0.49487,0.68335,-0.50757;
18:42:08.043,0.52881,0.68335,-0.50781;
18:42:08.053,0.54712,0.67017,-0.49463;
18:42:08.063,0.55371,0.66333,-0.50000;
18:42:08.073,0.55444,0.66406,-0.51245;
18:42:08.083,0.55688,0.68628,-0.53125;
18:42:08.093,0.56689,0.70776,-0.55518;
18:42:08.103,0.56470,0.72046,-0.56567;
18:42:08.113,0.56641,0.70581,-0.56079;
18:42:08.123,0.56299,0.66992,-0.54370;
18:42:08.133,0.55493,0.65967,-0.53076;
18:42:08.143,0.54761,0.65723,-0.52783;
18:42:08.153,0.53467,0.64502,-0.52148;
18:42:08.163,0.52441,0.64233,-0.53101;
18:42:08.173,0.51807,0.63623,-0.54639;
18:42:08.183,0.51611,0.63281,-0.55737;
18:42:08.193,0.51514,0.62622,-0.56250;
18:42:08.203,0.51538,0.62183,-0.56909;
18:42:08.213,0.52051,0.63452,-0.56616;
18:42:08.223,0.53394,0.65967,-0.57959;
18:42:08.233,0.54932,0.67578,-0.60107;
18:42:08.243,0.57471,0.68726,-0.60938;
18:42:08.253,0.58594,0.70654,-0.60010;
18:42:08.263,0.59009,0.70337,-0.51538;
18:42:08.273,0.64282,0.71875,-0.40308;
18:42:08.283,0.67090,0.71387,-0.40479;
18:42:08.293,0.70142,0.74365,-0.49243;
18:42:08.303,0.72656,0.81421,-0.51709;
18:42:08.313,0.70874,0.83789,-0.50830;
18:42:08.323,0.69653,0.81055,-0.50049;
18:42:08.333,0.58350,0.78979,-0.51196;
18:42:08.343,0.53882,0.70703,-0.49365;
18:42:08.353,0.53296,0.68091,-0.48267;
18:42:08.363,0.52417,0.65625,-0.47632;
18:42:08.373,0.51318,0.63647,-0.47461;
18:42:08.383,0.50464,0.62793,-0.47974;
18:42:08.393,0.49146,0.62622,-0.48828;
18:42:08.403,0.47046,0.63403,-0.49585;
18:42:08.413,0.44507,0.63525,-0.50610;
18:42:08.423,0.41821,0.63208,-0.52197;
18:42:08.433,0.39941,0.61987,-0.53442;
18:42:08.443,0.38989,0.61157,-0.53809;
18:42:08.453,0.38599,0.61011,-0.54883;
18:42:08.463,0.38428,0.61450,-0.56421;
18:42:08.473,0.38525,0.63989,-0.57275;
18:42:08.483,0.37939,0.67969,-0.57910;
18:42:08.493,0.37354,0.71289,-0.58740;
18:42:08.503,0.36523,0.73022,-0.60107;
18:42:08.513,0.36475,0.73389,-0.61206;
18:42:08.523,0.36963,0.71558,-0.61353;
18:42:08.533,0.36133,0.70508,-0.60767;
18:42:08.543,0.35596,0.70313,-0.60083;
18:42:08.553,0.35522,0.70850,-0.60522;
18:42:08.563,0.36011,0.71777,-0.60327;
18:42:08.573,0.36084,0.71948,-0.59863;
18:42:08.583,0.36987,0.72339,-0.59790;
18:42:08.593,0.37915,0.73950,-0.59961;
18:42:08.603,0.38306,0.76074,-0.60889;
18:42:08.613,0.38672,0.76245,-0.60449;
18:42:08.623,0.39258,0.73413,-0.59033;
18:42:08.633,0.39551,0.71948,-0.58008;
18:42:08.643,0.39160,0.70947,-0.57397;
18:42:08.653,0.39624,0.70483,-0.57300;
18:42:08.663,0.39648,0.71680,-0.57349;
18:42:08.673,0.39063,0.73315,-0.58228;
18:42:08.683,0.38623,0.74023,-0.59644;
18:42:08.693,0.38647,0.74780,-0.60986;
18:42:08.703,0.38550,0.75244,-0.61548;
18:42:08.713,0.38623,0.75000,-0.61865;
18:42:08.723,0.38794,0.74268,-0.61646;
18:42:08.733,0.38867,0.74390,-0.60718;
18:42:08.743,0.38867,0.74927,-0.60156;
18:42:08.753,0.38721,0.74097,-0.58911;
18:42:08.763,0.38892,0.73853,-0.57935;
18:42:08.773,0.38940,0.74609,-0.58179;
18:42:08.783,0.39063,0.76245,-0.59399;
18:42:08.793,0.39038,0.76953,-0.60181;
18:42:08.803,0.39478,0.76978,-0.59668;
18:42:08.813,0.40088,0.76953,-0.59814;
18:42:08.823,0.40601,0.76831,-0.59546;
18:42:08.833,0.41675,0.76196,-0.58789;
18:42:08.843,0.43164,0.75879,-0.57617;
18:42:08.853,0.43652,0.76270,-0.56616;
18:42:08.863,0.43994,0.76929,-0.56104;
18:42:08.873,0.44531,0.77637,-0.55127;
18:42:08.883,0.44653,0.77808,-0.53784;
18:42:08.893,0.44849,0.78345,-0.52319;
18:42:08.903,0.46021,0.78760,-0.50659;
18:42:08.913,0.49805,0.78564,-0.49341;
18:42:08.923,0.50830,0.77734,-0.47705;
18:42:08.933,0.51416,0.77563,-0.47363;
18:42:08.943,0.51685,0.77271,-0.47144;
18:42:08.953,0.51807,0.76636,-0.47046;
18:42:08.963,0.52002,0.76172,-0.46655;
18:42:08.973,0.51709,0.75024,-0.45630;
18:42:08.983,0.51245,0.72925,-0.44019;
18:42:08.993,0.51343,0.70752,-0.43286;
18:42:09.003,0.51245,0.69727,-0.44482;
18:42:09.013,0.50513,0.69458,-0.46387;
18:42:09.023,0.49731,0.69385,-0.49365;
18:42:09.033,0.49121,0.68140,-0.52441;
18:42:09.043,0.48828,0.66821,-0.54956;
18:42:09.053,0.47754,0.66699,-0.57129;
18:42:09.063,0.46191,0.65308,-0.58057;
18:42:09.073,0.44971,0.63428,-0.58594;
18:42:09.083,0.44092,0.61890,-0.57373;
18:42:09.093,0.43457,0.62061,-0.56763;
18:42:09.103,0.42798,0.64429,-0.58130;
18:42:09.113,0.41553,0.67480,-0.59375;
18:42:09.123,0.40918,0.69067,-0.60156;
18:42:09.133,0.40527,0.69824,-0.59180;
18:42:09.143,0.39966,0.70483,-0.57642;
18:42:09.153,0.39771,0.71436,-0.57104;
18:42:09.163,0.39331,0.72485,-0.57178;
18:42:09.173,0.39307,0.72363,-0.56543;
18:42:09.183,0.39868,0.72705,-0.56152;
18:42:09.193,0.40479,0.73242,-0.56494;
18:42:09.203,0.40430,0.75586,-0.57227;
18:42:09.213,0.41284,0.73193,-0.56592;
18:42:09.223,0.42090,0.72314,-0.57373;
18:42:09.233,0.41821,0.71729,-0.57910;
18:42:09.243,0.41870,0.70874,-0.57983;
18:42:09.253,0.42139,0.70264,-0.57886;
18:42:09.263,0.42651,0.70215,-0.58081;
18:42:09.273,0.43359,0.70239,-0.58130;
18:42:09.283,0.43506,0.69116,-0.57471;
18:42:09.293,0.44702,0.69287,-0.57178;
18:42:09.303,0.45532,0.69141,-0.57397;
18:42:09.313,0.45776,0.69141,-0.56665;
18:42:09.323,0.46289,0.68579,-0.56885;
18:42:09.333,0.46460,0.67212,-0.57471;
18:42:09.343,0.46753,0.66919,-0.58081;
18:42:09.353,0.47705,0.67798,-0.59692;
18:42:09.363,0.50000,0.70679,-0.58228;
18:42:09.373,0.52393,0.73218,-0.57739;
18:42:09.383,0.51953,0.75977,-0.61621;
18:42:09.393,0.50244,0.73169,-0.63135;
18:42:09.403,0.49829,0.71484,-0.63330;
18:42:09.413,0.48535,0.68823,-0.61401;
18:42:09.423,0.47388,0.66724,-0.59229;
18:42:09.433,0.46802,0.65869,-0.57300;
18:42:09.443,0.46558,0.65869,-0.56445;
18:42:09.453,0.46729,0.66382,-0.56836;
18:42:09.463,0.47339,0.67236,-0.57666;
18:42:09.473,0.47632,0.67920,-0.57983;
18:42:09.483,0.47607,0.70630,-0.58374;
18:42:09.493,0.46729,0.71118,-0.58447;
18:42:09.503,0.46484,0.71484,-0.57837;
18:42:09.513,0.46313,0.71802,-0.57617;
18:42:09.523,0.46313,0.71289,-0.57886;
18:42:09.533,0.46655,0.70581,-0.57520;
18:42:09.543,0.46899,0.70410,-0.57422;
18:42:09.553,0.46802,0.70361,-0.56860;
18:42:09.563,0.46753,0.70605,-0.56543;
18:42:09.573,0.46631,0.70337,-0.56738;
18:42:09.583,0.46631,0.70630,-0.57300;
18:42:09.593,0.46582,0.70898,-0.57324;
18:42:09.603,0.46167,0.70532,-0.56519;
18:42:09.613,0.45898,0.70313,-0.56030;
18:42:09.623,0.45532,0.70630,-0.56030;
18:42:09.633,0.45264,0.70605,-0.56104;
18:42:09.643,0.45410,0.70190,-0.56152;
18:42:09.653,0.45337,0.70239,-0.55957;
18:42:09.663,0.45386,0.70288,-0.55566;
18:42:09.673,0.45654,0.70288,-0.55859;
18:42:09.683,0.45972,0.69873,-0.56421;
18:42:09.693,0.46289,0.69214,-0.56616;
18:42:09.703,0.46729,0.68896,-0.56519;
18:42:09.713,0.47095,0.69409,-0.56885;
18:42:09.723,0.47070,0.69800,-0.57178;
18:42:09.733,0.46851,0.69995,-0.56738;
18:42:09.743,0.46997,0.70166,-0.56787;
18:42:09.753,0.46948,0.69922,-0.56519;
18:42:09.763,0.46387,0.69312,-0.55688;
18:42:09.773,0.46655,0.68750,-0.56519;
18:42:09.783,0.46851,0.69287,-0.56958;
18:42:09.793,0.46851,0.70166,-0.56885;
18:42:09.803,0.46753,0.69922,-0.56665;
18:42:09.813,0.46777,0.69727,-0.56665;
18:42:09.823,0.46899,0.69800,-0.57007;
18:42:09.833,0.46851,0.69556,-0.56689;
18:42:09.843,0.46606,0.69702,-0.56445;
18:42:09.853,0.46631,0.69629,-0.56543;
18:42:09.863,0.46899,0.69458,-0.56885;
18:42:09.873,0.47266,0.69385,-0.56982;
18:42:09.883,0.47168,0.69458,-0.56641;
18:42:09.893,0.46997,0.69531,-0.56714;
18:42:09.903,0.47070,0.69727,-0.56787;
18:42:09.913,0.46631,0.69995,-0.56323;
18:42:09.923,0.46436,0.69824,-0.56250;
18:42:09.933,0.46484,0.69434,-0.56079;
18:42:09.943,0.46582,0.69141,-0.55762;
18:42:09.953,0.46533,0.69238,-0.55713;
18:42:09.963,0.46387,0.69360,-0.55151;
18:42:09.973,0.46509,0.69922,-0.55078;
18:42:09.983,0.46436,0.70044,-0.55347;
18:42:09.993,0.46387,0.69434,-0.55200;
18:42:10.003,0.46582,0.69482,-0.55322;
18:42:10.013,0.46948,0.69824,-0.55249;
18:42:10.023,0.46899,0.69531,-0.55200;
18:42:10.033,0.47168,0.70093,-0.55493;
18:42:10.043,0.47461,0.70874,-0.55908;
18:42:10.053,0.47363,0.71094,-0.56152;
18:42:10.063,0.46924,0.70972,-0.55908;
18:42:10.073,0.46680,0.71655,-0.55640;
18:42:10.083,0.46313,0.71313,-0.55298;
18:42:10.093,0.45923,0.71313,-0.55322;
18:42:10.103,0.45801,0.71558,-0.55005;
18:42:10.113,0.45972,0.71533,-0.55322;
18:42:10.123,0.46533,0.71729,-0.55713;
18:42:10.133,0.46777,0.71948,-0.55615;
18:42:10.143,0.46777,0.71753,-0.55225;
18:42:10.153,0.46753,0.71460,-0.55029;
18:42:10.163,0.46533,0.71875,-0.55151;
18:42:10.173,0.46362,0.72412,-0.55298;
18:42:10.183,0.46191,0.71997,-0.55225;
18:42:10.193,0.46606,0.71875,-0.55127;
18:42:10.203,0.47168,0.72534,-0.55762;
18:42:10.213,0.47412,0.72998,-0.55835;
18:42:10.223,0.47925,0.72876,-0.56274;
18:42:10.233,0.48608,0.73877,-0.56836;
18:42:10.243,0.48999,0.73877,-0.56396;
18:42:10.253,0.49438,0.73804,-0.56348;
18:42:10.263,0.49707,0.74756,-0.57300;
18:42:10.273,0.49658,0.74023,-0.57739;
18:42:10.283,0.49365,0.72266,-0.56519;
18:42:10.293,0.50513,0.69507,-0.52783;
18:42:10.303,0.53003,0.67700,-0.49805;
18:42:10.313,0.54932,0.69214,-0.48633;
18:42:10.323,0.55273,0.71777,-0.51270;
18:42:10.333,0.54028,0.70996,-0.55347;
18:42:10.343,0.52148,0.72729,-0.56714;
18:42:10.353,0.46729,0.79443,-0.57983;
18:42:10.363,0.47607,0.69531,-0.55811;
18:42:10.373,0.47095,0.66235,-0.54419;
18:42:10.383,0.45850,0.67065,-0.53760;
18:42:10.393,0.44214,0.69385,-0.53760;
18:42:10.403,0.42676,0.71655,-0.53906;
18:42:10.413,0.41333,0.73193,-0.54053;
18:42:10.423,0.40625,0.73608,-0.53271;
18:42:10.433,0.40552,0.72388,-0.52368;
18:42:10.443,0.41089,0.71240,-0.52246;
18:42:10.453,0.41650,0.71338,-0.52100;
18:42:10.463,0.41650,0.71777,-0.51831;
18:42:10.473,0.41431,0.71704,-0.51978;
18:42:10.483,0.41455,0.71777,-0.52197;
18:42:10.493,0.42212,0.72437,-0.51929;
18:42:10.503,0.42944,0.72778,-0.51660;
18:42:10.513,0.43335,0.73853,-0.51367;
18:42:10.523,0.43457,0.75146,-0.51416;
18:42:10.533,0.43164,0.75659,-0.51904;
18:42:10.543,0.43286,0.75977,-0.52686;
18:42:10.553,0.43555,0.74927,-0.53711;
18:42:10.563,0.43579,0.73071,-0.53711;
18:42:10.573,0.44067,0.72534,-0.53125;
18:42:10.583,0.43970,0.72974,-0.52393;
18:42:10.593,0.43701,0.73511,-0.51782;
18:42:10.603,0.43945,0.73218,-0.51294;
18:42:10.613,0.44458,0.72437,-0.51001;
18:42:10.623,0.44458,0.72510,-0.50977;
18:42:10.633,0.44141,0.73096,-0.51074;
18:42:10.643,0.44580,0.73169,-0.51465;
18:42:10.653,0.45654,0.73169,-0.50610;
18:42:10.663,0.45776,0.73608,-0.50830;
18:42:10.673,0.45630,0.74146,-0.51660;
18:42:10.683,0.45679,0.73608,-0.52808;
18:42:10.693,0.46289,0.73755,-0.53345;
18:42:10.703,0.46289,0.73853,-0.53027;
18:42:10.713,0.46216,0.73071,-0.52832;
18:42:10.723,0.46216,0.72656,-0.52783;
18:42:10.733,0.46143,0.71753,-0.52686;
18:42:10.743,0.46484,0.70728,-0.52100;
18:42:10.753,0.47363,0.69946,-0.52271;
18:42:10.763,0.47729,0.69263,-0.52881;
18:42:10.773,0.47778,0.68628,-0.53833;
18:42:10.783,0.47949,0.67529,-0.54370;
18:42:10.793,0.48120,0.66406,-0.55151;
18:42:10.803,0.48364,0.66260,-0.55884;
18:42:10.813,0.48291,0.66797,-0.55444;
18:42:10.823,0.48999,0.68115,-0.55444;
18:42:10.833,0.49634,0.68311,-0.55078;
18:42:10.843,0.51025,0.69556,-0.56445;
18:42:10.853,0.52319,0.72754,-0.58447;
18:42:10.863,0.54614,0.74756,-0.57715;
18:42:10.873,0.57031,0.76953,-0.58057;
18:42:10.883,0.57568,0.78027,-0.60669;
18:42:10.893,0.57788,0.80347,-0.61670;
18:42:10.903,0.55420,0.80786,-0.61963;
18:42:10.913,0.52344,0.77124,-0.60791;
18:42:10.923,0.51709,0.73779,-0.57739;
18:42:10.933,0.51147,0.71021,-0.52856;
18:42:10.943,0.44116,0.65845,-0.55908;
18:42:10.953,0.42163,0.65039,-0.58838;
18:42:10.963,0.41333,0.63794,-0.58569;
18:42:10.973,0.41675,0.63843,-0.55835;
18:42:10.983,0.44043,0.66357,-0.53833;
18:42:10.993,0.46802,0.68140,-0.52319;
18:42:11.003,0.49609,0.66284,-0.49927;
18:42:11.013,0.53247,0.67407,-0.44580;
18:42:11.023,0.56226,0.70581,-0.44312;
18:42:11.033,0.56250,0.74561,-0.49023;
18:42:11.043,0.55688,0.82886,-0.52979;
18:42:11.053,0.53735,0.85107,-0.58154;
18:42:11.063,0.52026,0.80103,-0.60889;
18:42:11.073,0.52100,0.77148,-0.60938;
18:42:11.083,0.50391,0.76294,-0.60425;
18:42:11.093,0.47070,0.76465,-0.58008;
18:42:11.103,0.43115,0.76343,-0.53491;
18:42:11.113,0.40894,0.74756,-0.50415;
18:42:11.123,0.40332,0.72510,-0.49463;
18:42:11.133,0.40308,0.70776,-0.49512;
18:42:11.143,0.40283,0.69800,-0.50317;
18:42:11.153,0.40161,0.69043,-0.51123;
18:42:11.163,0.39795,0.69019,-0.52075;
18:42:11.173,0.39526,0.68091,-0.52881;
18:42:11.183,0.39575,0.67578,-0.52905;
18:42:11.193,0.39648,0.67041,-0.53320;
18:42:11.203,0.39917,0.66016,-0.53052;
18:42:11.213,0.40186,0.65430,-0.52588;
18:42:11.223,0.40430,0.64355,-0.52417;
18:42:11.233,0.41675,0.63721,-0.54419;
18:42:11.243,0.43384,0.71729,-0.60693;
18:42:11.253,0.45068,0.70752,-0.61450;
18:42:11.263,0.45654,0.70483,-0.60083;
18:42:11.273,0.46338,0.70923,-0.59033;
18:42:11.283,0.46899,0.71313,-0.58887;
18:42:11.293,0.47437,0.72388,-0.58545;
18:42:11.303,0.47754,0.72729,-0.58228;
18:42:11.313,0.47827,0.72925,-0.56836;
18:42:11.323,0.47656,0.73438,-0.56299;
18:42:11.333,0.47729,0.72900,-0.56836;
18:42:11.343,0.48218,0.72192,-0.57153;
18:42:11.353,0.48340,0.70801,-0.56714;
18:42:11.363,0.48486,0.68945,-0.55786;
18:42:11.373,0.47485,0.68726,-0.54614;
18:42:11.383,0.46655,0.68848,-0.54102;
18:42:11.393,0.46338,0.67554,-0.54028;
18:42:11.403,0.46460,0.66699,-0.53320;
18:42:11.413,0.47168,0.67480,-0.52637;
18:42:11.423,0.47656,0.67163,-0.52466;
18:42:11.433,0.47974,0.66699,-0.52612;
18:42:11.443,0.47949,0.66626,-0.53027;
18:42:11.453,0.48389,0.66089,-0.53760;
18:42:11.463,0.52881,0.76245,-0.58203;
18:42:11.473,0.46021,0.67334,-0.53760;
18:42:11.483,0.45068,0.65601,-0.53857;
18:42:11.493,0.44263,0.64844,-0.54956;
18:42:11.503,0.42603,0.66797,-0.56177;
18:42:11.513,0.41211,0.69312,-0.56543;
18:42:11.523,0.40942,0.70142,-0.56323;
18:42:11.533,0.41479,0.69360,-0.54370;
18:42:11.543,0.42017,0.68213,-0.51978;
18:42:11.553,0.43384,0.67749,-0.50879;
18:42:11.563,0.44189,0.67188,-0.51514;
18:42:11.573,0.44482,0.66895,-0.53247;
18:42:11.583,0.45313,0.66748,-0.54810;
18:42:11.593,0.45996,0.67603,-0.55762;
18:42:11.603,0.46777,0.69458,-0.56421;
18:42:11.613,0.48560,0.71606,-0.57739;
18:42:11.623,0.50684,0.75220,-0.59351;
18:42:11.633,0.53271,0.77026,-0.57910;
18:42:11.643,0.57349,0.77124,-0.50171;
18:42:11.653,0.59692,0.76929,-0.45630;
18:42:11.663,0.57837,0.78613,-0.46387;
18:42:11.673,0.56323,0.86841,-0.48975;
18:42:11.683,0.53125,0.87695,-0.52808;
18:42:11.693,0.54077,0.78516,-0.50562;
18:42:11.703,0.52344,0.75586,-0.49316;
18:42:11.713,0.49976,0.75586,-0.49121;
18:42:11.723,0.47900,0.77344,-0.49683;
18:42:11.733,0.46045,0.78076,-0.51099;
18:42:11.743,0.44458,0.76660,-0.52173;
18:42:11.753,0.42944,0.71582,-0.51514;
18:42:11.763,0.41675,0.68799,-0.50952;
18:42:11.773,0.41138,0.66479,-0.50977;
18:42:11.783,0.41089,0.65747,-0.52075;
18:42:11.793,0.40991,0.66626,-0.54126;
18:42:11.803,0.41162,0.68311,-0.56641;
18:42:11.813,0.40991,0.68896,-0.58667;
18:42:11.823,0.41235,0.68555,-0.59521;
18:42:11.833,0.41455,0.67163,-0.59473;
18:42:11.843,0.41406,0.65649,-0.58838;
18:42:11.853,0.41748,0.64722,-0.58716;
18:42:11.863,0.42065,0.64111,-0.59009;
18:42:11.873,0.41846,0.64722,-0.58862;
18:42:11.883,0.41577,0.65552,-0.59155;
18:42:11.893,0.41870,0.66162,-0.59180;
18:42:11.903,0.42480,0.65649,-0.59619;
18:42:11.913,0.42603,0.64355,-0.60034;
18:42:11.923,0.42261,0.64209,-0.60327;
18:42:11.933,0.42456,0.65601,-0.62061;
18:42:11.943,0.44287,0.70166,-0.64648;
18:42:11.953,0.45483,0.75928,-0.66650;
18:42:11.963,0.51514,0.71143,-0.57422;
18:42:11.973,0.50195,0.73682,-0.58691;
18:42:11.983,0.46948,0.83740,-0.61108;
18:42:11.993,0.42407,0.84375,-0.64209;
18:42:12.003,0.40308,0.74805,-0.61572;
18:42:12.013,0.41577,0.67896,-0.59399;
18:42:12.023,0.41772,0.64429,-0.60815;
18:42:12.033,0.37988,0.72803,-0.59497;
18:42:12.043,0.38550,0.67529,-0.54565;
18:42:12.053,0.39502,0.65869,-0.53345;
18:42:12.063,0.40137,0.64575,-0.52734;
18:42:12.073,0.41724,0.64063,-0.51514;
18:42:12.083,0.43018,0.63110,-0.51343;
18:42:12.093,0.43604,0.62842,-0.52197;
18:42:12.103,0.45410,0.64233,-0.54248;
18:42:12.113,0.49707,0.69189,-0.57983;
18:42:12.123,0.54175,0.73315,-0.60132;
18:42:12.133,0.72681,0.72412,-0.49878;
18:42:12.143,0.74390,0.75000,-0.52759;
18:42:12.153,0.74829,0.84009,-0.53857;
18:42:12.163,0.70850,0.86182,-0.57104;
18:42:12.173,0.68750,0.81689,-0.54370;
18:42:12.183,0.69214,0.77344,-0.49609;
18:42:12.193,0.67944,0.74683,-0.46191;
18:42:12.203,0.64478,0.71533,-0.47705;
18:42:12.213,0.59692,0.71265,-0.49463;
18:42:12.223,0.56128,0.72729,-0.51221;
18:42:12.233,0.52588,0.73462,-0.53394;
18:42:12.243,0.49829,0.72266,-0.54663;
18:42:12.253,0.47705,0.69800,-0.54565;
18:42:12.263,0.45410,0.66968,-0.54370;
18:42:12.273,0.42969,0.65869,-0.53833;
18:42:12.283,0.40039,0.66284,-0.52979;
18:42:12.293,0.37793,0.67358,-0.52051;
18:42:12.303,0.34106,0.67090,-0.55566;
18:42:12.313,0.32300,0.69946,-0.56445;
18:42:12.323,0.30957,0.68823,-0.57202;
18:42:12.333,0.29834,0.67041,-0.58130;
18:42:12.343,0.29199,0.66064,-0.57690;
18:42:12.353,0.28467,0.65259,-0.57495;
18:42:12.363,0.28027,0.65161,-0.58081;
18:42:12.373,0.27954,0.64600,-0.58398;
18:42:12.383,0.28491,0.64771,-0.58374;
18:42:12.393,0.28149,0.64160,-0.58154;
18:42:12.403,0.29688,0.65234,-0.60205;
18:42:12.413,0.34717,0.70752,-0.64868;
18:42:12.423,0.39331,0.76880,-0.69629;
18:42:12.433,0.48340,0.74683,-0.57861;
18:42:12.443,0.49951,0.79297,-0.58643;
18:42:12.453,0.45410,0.86792,-0.65137;
18:42:12.463,0.42676,0.91040,-0.66821;
18:42:12.473,0.41284,0.86548,-0.65649;
18:42:12.483,0.39844,0.77661,-0.61426;
18:42:12.493,0.40503,0.73022,-0.58521;
18:42:12.503,0.38696,0.72656,-0.56030;
18:42:12.513,0.36914,0.74341,-0.55396;
18:42:12.523,0.36108,0.75488,-0.55933;
18:42:12.533,0.36401,0.73779,-0.55591;
18:42:12.543,0.36719,0.70996,-0.55054;
18:42:12.553,0.37085,0.70020,-0.54175;
18:42:12.563,0.37793,0.69922,-0.53003;
18:42:12.573,0.39819,0.70898,-0.52930;
18:42:12.583,0.42407,0.70337,-0.53052;
18:42:12.593,0.43506,0.73315,-0.55371;
18:42:12.603,0.44702,0.74390,-0.57104;
18:42:12.613,0.45972,0.73364,-0.57813;
18:42:12.623,0.47852,0.72412,-0.59131;
18:42:12.633,0.48486,0.71484,-0.59058;
18:42:12.643,0.48706,0.70654,-0.57861;
18:42:12.653,0.48633,0.70361,-0.56616;
18:42:12.663,0.46948,0.70947,-0.55078;
18:42:12.673,0.45801,0.71118,-0.54102;
18:42:12.683,0.45581,0.70313,-0.54688;
18:42:12.693,0.45825,0.70801,-0.56348;
18:42:12.703,0.46875,0.73047,-0.57471;
18:42:12.713,0.47217,0.73535,-0.57324;
18:42:12.723,0.47681,0.72339,-0.56348;
18:42:12.733,0.47241,0.71069,-0.56030;
18:42:12.743,0.46509,0.70337,-0.56689;
18:42:12.753,0.46265,0.69922,-0.56567;
18:42:12.763,0.45508,0.69556,-0.56128;
18:42:12.773,0.45654,0.69165,-0.55249;
18:42:12.783,0.46436,0.69434,-0.54736;
18:42:12.793,0.46680,0.71191,-0.54883;
18:42:12.803,0.47388,0.70898,-0.54077;
18:42:12.813,0.48657,0.69312,-0.53467;
18:42:12.823,0.49341,0.68018,-0.53223;
18:42:12.833,0.48413,0.66675,-0.53564;
18:42:12.843,0.45898,0.67041,-0.53711;
18:42:12.853,0.44873,0.67163,-0.53198;
18:42:12.863,0.45435,0.68384,-0.55371;
18:42:12.873,0.53833,0.75342,-0.57080;
18:42:12.883,0.60767,0.76050,-0.51538;
18:42:12.893,0.59790,0.77075,-0.53442;
18:42:12.903,0.57715,0.79810,-0.55078;
18:42:12.913,0.55835,0.82300,-0.53418;
18:42:12.923,0.53345,0.82275,-0.51538;
18:42:12.933,0.52197,0.78906,-0.51782;
18:42:12.943,0.51807,0.75806,-0.52222;
18:42:12.953,0.50781,0.73804,-0.51904;
18:42:12.963,0.48560,0.71753,-0.50171;
18:42:12.973,0.46802,0.70996,-0.50049;
18:42:12.983,0.45947,0.69482,-0.50513;
18:42:12.993,0.44702,0.68726,-0.51514;
18:42:13.003,0.43726,0.69702,-0.52515;
18:42:13.013,0.42188,0.70605,-0.52588;
18:42:13.023,0.40356,0.70898,-0.52490;
18:42:13.033,0.39404,0.71851,-0.53003;
18:42:13.043,0.38672,0.72729,-0.53345;
18:42:13.053,0.37793,0.72314,-0.53052;
18:42:13.063,0.37646,0.71460,-0.52661;
18:42:13.073,0.38037,0.70996,-0.52710;
18:42:13.083,0.37622,0.70850,-0.53784;
18:42:13.093,0.36230,0.71167,-0.54761;
18:42:13.103,0.35010,0.71558,-0.56128;
18:42:13.113,0.34644,0.71655,-0.57422;
18:42:13.123,0.34229,0.71704,-0.58472;
18:42:13.133,0.34668,0.71289,-0.58594;
18:42:13.143,0.35229,0.71094,-0.58569;
18:42:13.153,0.35327,0.71558,-0.57227;
18:42:13.163,0.34326,0.75903,-0.58154;
18:42:13.173,0.35205,0.78125,-0.58911;
18:42:13.183,0.35645,0.78174,-0.60132;
18:42:13.193,0.37061,0.78125,-0.60864;
18:42:13.203,0.38599,0.78223,-0.61084;
18:42:13.213,0.39429,0.78052,-0.59937;
18:42:13.223,0.40405,0.77783,-0.57861;
18:42:13.233,0.41675,0.77710,-0.56396;
18:42:13.243,0.42114,0.77710,-0.55664;
18:42:13.253,0.42554,0.78101,-0.55566;
18:42:13.263,0.43604,0.78052,-0.55298;
18:42:13.273,0.45068,0.77808,-0.55127;
18:42:13.283,0.46069,0.77661,-0.54810;
18:42:13.293,0.46899,0.77002,-0.54053;
18:42:13.303,0.47388,0.75366,-0.53271;
18:42:13.313,0.47632,0.73535,-0.52466;
18:42:13.323,0.47583,0.72607,-0.51904;
18:42:13.333,0.46924,0.72266,-0.51514;
18:42:13.343,0.46680,0.72168,-0.51318;
18:42:13.353,0.47241,0.73047,-0.51587;
18:42:13.363,0.47339,0.72949,-0.52197;
18:42:13.373,0.46558,0.72290,-0.52271;
18:42:13.383,0.46387,0.72217,-0.52734;
18:42:13.393,0.45923,0.71851,-0.53369;
18:42:13.403,0.44922,0.71191,-0.53711;
18:42:13.413,0.44238,0.71558,-0.53955;
18:42:13.423,0.43335,0.72144,-0.54077;
18:42:13.433,0.42725,0.72046,-0.55029;
18:42:13.443,0.42285,0.71851,-0.56348;
18:42:13.453,0.41333,0.70605,-0.59448;
18:42:13.463,0.40625,0.70996,-0.60205;
18:42:13.473,0.39844,0.70020,-0.60059;
18:42:13.483,0.38989,0.69897,-0.60938;
18:42:13.493,0.38062,0.70557,-0.61621;
18:42:13.503,0.37988,0.71826,-0.62866;
18:42:13.513,0.38135,0.72266,-0.62988;
18:42:13.523,0.38403,0.71655,-0.61646;
18:42:13.533,0.38647,0.71997,-0.59912;
18:42:13.543,0.38818,0.72974,-0.59497;
18:42:13.553,0.38745,0.73608,-0.59546;
18:42:13.563,0.38916,0.74268,-0.58887;
18:42:13.573,0.39038,0.74219,-0.58325;
18:42:13.583,0.39160,0.74146,-0.57544;
18:42:13.593,0.39526,0.75708,-0.57520;
18:42:13.603,0.39990,0.76807,-0.56763;
18:42:13.613,0.40576,0.76733,-0.55615;
18:42:13.623,0.40576,0.76318,-0.54102;
18:42:13.633,0.40625,0.75879,-0.52905;
18:42:13.643,0.41016,0.76147,-0.52734;
18:42:13.653,0.42017,0.76978,-0.53027;
18:42:13.663,0.42871,0.77515,-0.53491;
18:42:13.673,0.43115,0.77222,-0.53735;
18:42:13.683,0.43433,0.76050,-0.53198;
18:42:13.693,0.43726,0.75439,-0.52344;
18:42:13.703,0.43555,0.75073,-0.52148;
18:42:13.713,0.43726,0.74121,-0.51904;
18:42:13.723,0.44116,0.72656,-0.52637;
18:42:13.733,0.45679,0.71973,-0.53809;
18:42:13.743,0.45996,0.69995,-0.53247;
18:42:13.753,0.45850,0.69141,-0.53540;
18:42:13.763,0.45874,0.68042,-0.53784;
18:42:13.773,0.45654,0.66138,-0.54126;
18:42:13.783,0.44873,0.64648,-0.55225;
18:42:13.793,0.43604,0.64038,-0.57031;
18:42:13.803,0.43018,0.64380,-0.59351;
18:42:13.813,0.44604,0.67944,-0.60742;
18:42:13.823,0.46997,0.73145,-0.59937;
18:42:13.833,0.50317,0.76831,-0.58569;
18:42:13.843,0.58496,0.83716,-0.54126;
18:42:13.853,0.60254,0.87622,-0.52808;
18:42:13.863,0.58960,0.89673,-0.54614;
18:42:13.873,0.59595,0.96362,-0.58081;
18:42:13.883,0.54761,0.94067,-0.59570;
18:42:13.893,0.53442,0.88354,-0.56177;
18:42:13.903,0.52710,0.85376,-0.52563;
18:42:13.913,0.49487,0.82788,-0.50513;
18:42:13.923,0.46216,0.82275,-0.50391;
18:42:13.933,0.43750,0.80542,-0.49512;
18:42:13.943,0.41602,0.78076,-0.48828;
18:42:13.953,0.40356,0.74414,-0.48315;
18:42:13.963,0.40161,0.71582,-0.47974;
18:42:13.973,0.39819,0.70508,-0.48120;
18:42:13.983,0.39917,0.68677,-0.49121;
18:42:13.993,0.40039,0.67969,-0.49683;
18:42:14.003,0.39575,0.68457,-0.50049;
18:42:14.013,0.38867,0.68042,-0.49854;
18:42:14.023,0.37378,0.65039,-0.50928;
18:42:14.033,0.37573,0.64233,-0.52246;
18:42:14.043,0.37402,0.64453,-0.53149;
18:42:14.053,0.37378,0.66064,-0.55005;
18:42:14.063,0.37524,0.66943,-0.57300;
18:42:14.073,0.38110,0.67480,-0.58862;
18:42:14.083,0.38501,0.68506,-0.60156;
18:42:14.093,0.38794,0.68604,-0.60840;
18:42:14.103,0.38745,0.68481,-0.60913;
18:42:14.113,0.38916,0.68896,-0.61743;
18:42:14.123,0.38843,0.69873,-0.62915;
18:42:14.133,0.38306,0.70410,-0.63452;
18:42:14.143,0.38135,0.70923,-0.63989;
18:42:14.153,0.38037,0.71631,-0.64258;
18:42:14.163,0.37915,0.71948,-0.64551;
18:42:14.173,0.37891,0.72144,-0.64551;
18:42:14.183,0.37573,0.72437,-0.64746;
18:42:14.193,0.36963,0.72974,-0.65405;
18:42:14.203,0.36304,0.72437,-0.65405;
18:42:14.213,0.35327,0.72095,-0.65356;
18:42:14.223,0.34546,0.71118,-0.66016;
18:42:14.233,0.34253,0.70239,-0.66382;
18:42:14.243,0.33911,0.69946,-0.66260;
18:42:14.253,0.33521,0.69678,-0.66333;
18:42:14.263,0.33203,0.70386,-0.66235;
18:42:14.273,0.33325,0.71240,-0.65479;
18:42:14.283,0.33667,0.71704,-0.65015;
18:42:14.293,0.33984,0.71606,-0.64746;
18:42:14.303,0.34497,0.72241,-0.64526;
18:42:14.313,0.35522,0.74072,-0.62915;
18:42:14.323,0.35669,0.74756,-0.62280;
18:42:14.333,0.36230,0.76074,-0.61084;
18:42:14.343,0.36597,0.76294,-0.59326;
18:42:14.353,0.36841,0.75879,-0.57764;
18:42:14.363,0.37378,0.75513,-0.57080;
18:42:14.373,0.37866,0.75659,-0.56421;
18:42:14.383,0.38647,0.76367,-0.55933;
18:42:14.393,0.39453,0.76709,-0.55005;
18:42:14.403,0.40723,0.76270,-0.54932;
18:42:14.413,0.41187,0.76074,-0.54517;
18:42:14.423,0.41748,0.76123,-0.52759;
18:42:14.433,0.42212,0.75732,-0.52271;
18:42:14.443,0.42847,0.75635,-0.51978;
18:42:14.453,0.43848,0.75342,-0.51636;
18:42:14.463,0.45190,0.76001,-0.52417;
18:42:14.473,0.46802,0.76343,-0.52246;
18:42:14.483,0.47095,0.74634,-0.50952;
18:42:14.493,0.47290,0.73340,-0.49829;
18:42:14.503,0.47290,0.72656,-0.49585;
18:42:14.513,0.46631,0.71948,-0.49878;
18:42:14.523,0.46313,0.70947,-0.50024;
18:42:14.533,0.46216,0.69604,-0.49829;
18:42:14.543,0.46802,0.67261,-0.49121;
18:42:14.553,0.47803,0.64624,-0.48804;
18:42:14.563,0.47461,0.63647,-0.50000;
18:42:14.573,0.48853,0.65991,-0.54102;
18:42:14.583,0.51636,0.71631,-0.60181;
18:42:14.593,0.67920,0.91797,-0.59839;
18:42:14.603,0.70752,0.98950,-0.62524;
18:42:14.613,0.65137,0.93579,-0.60327;
18:42:14.623,0.64258,0.88281,-0.54736;
18:42:14.633,0.63696,0.85791,-0.49121;
18:42:14.643,0.61084,0.86304,-0.46436;
18:42:14.653,0.55078,0.85107,-0.47705;
18:42:14.663,0.51489,0.82300,-0.47974;
18:42:14.673,0.50073,0.79150,-0.46729;
18:42:14.683,0.48633,0.74658,-0.45068;
18:42:14.693,0.47827,0.70386,-0.44214;
18:42:14.703,0.48022,0.67139,-0.43066;
18:42:14.713,0.47876,0.62915,-0.41870;
18:42:14.723,0.47754,0.59302,-0.40918;
18:42:14.733,0.48169,0.57788,-0.40088;
18:42:14.743,0.47876,0.58423,-0.40210;
18:42:14.753,0.46973,0.60571,-0.41528;
18:42:14.763,0.46362,0.63159,-0.44336;
18:42:14.773,0.45483,0.64673,-0.46436;
18:42:14.783,0.44043,0.65210,-0.47583;
18:42:14.793,0.42139,0.65576,-0.47852;
18:42:14.803,0.39966,0.65332,-0.48291;
18:42:14.813,0.39111,0.66504,-0.48682;
18:42:14.823,0.38257,0.67749,-0.48120;
18:42:14.833,0.37598,0.69434,-0.49194;
18:42:14.843,0.39136,0.71191,-0.50977;
18:42:14.853,0.40527,0.72949,-0.53906;
18:42:14.863,0.42188,0.75635,-0.57349;
18:42:14.873,0.44849,0.77637,-0.59912;
18:42:14.883,0.50830,0.81299,-0.60352;
18:42:14.893,0.54590,0.79883,-0.53564;
18:42:14.903,0.56494,0.81348,-0.51855;
18:42:14.913,0.56543,0.83081,-0.49585;
18:42:14.923,0.55908,0.82788,-0.47314;
18:42:14.933,0.55176,0.81763,-0.45117;
18:42:14.943,0.53345,0.79272,-0.43311;
18:42:14.953,0.50952,0.74048,-0.42896;
18:42:14.963,0.49268,0.69019,-0.43091;
18:42:14.973,0.48975,0.67603,-0.44775;
18:42:14.983,0.51099,0.69409,-0.46899;
18:42:14.993,0.56494,0.73413,-0.47534;
18:42:15.003,0.62378,0.78564,-0.47363;
18:42:15.013,0.63110,0.83887,-0.45801;
18:42:15.023,0.61133,0.86841,-0.41943;
18:42:15.033,0.57300,0.86646,-0.38574;
18:42:15.043,0.50830,0.87280,-0.35278;
18:42:15.053,0.47876,0.88159,-0.31006;
18:42:15.063,0.46069,0.87061,-0.27832;
18:42:15.073,0.42041,0.87012,-0.28955;
18:42:15.083,0.38232,0.87256,-0.33081;
18:42:15.093,0.34570,0.86646,-0.36084;
18:42:15.103,0.32813,0.87109,-0.37744;
18:42:15.113,0.31543,0.88330,-0.38965;
18:42:15.123,0.28711,0.89697,-0.39282;
18:42:15.133,0.25635,0.90601,-0.39233;
18:42:15.143,0.22705,0.92798,-0.40625;
18:42:15.153,0.20605,0.94287,-0.41821;
18:42:15.163,0.18872,0.92920,-0.42847;
18:42:15.173,0.17407,0.91040,-0.44727;
18:42:15.183,0.16919,0.90918,-0.46118;
18:42:15.193,0.21387,0.92554,-0.48071;
18:42:15.203,0.22583,0.93994,-0.49048;
18:42:15.213,0.22070,0.94263,-0.49390;
18:42:15.223,0.21021,0.93091,-0.48828;
18:42:15.233,0.20581,0.91821,-0.49146;
18:42:15.243,0.20923,0.90039,-0.49268;
18:42:15.253,0.22192,0.88062,-0.49390;
18:42:15.263,0.23950,0.86206,-0.49292;
18:42:15.273,0.24927,0.86475,-0.48584;
18:42:15.283,0.25220,0.89014,-0.48169;
18:42:15.293,0.26050,0.91650,-0.49951;
18:42:15.303,0.26733,0.92627,-0.51587;
18:42:15.313,0.27319,0.91357,-0.51685;
18:42:15.323,0.27808,0.89819,-0.51196;
18:42:15.333,0.28052,0.88037,-0.49829;
18:42:15.343,0.28345,0.85059,-0.48047;
18:42:15.353,0.29395,0.81641,-0.46289;
18:42:15.363,0.32568,0.82056,-0.47778;
18:42:15.373,0.36353,0.89136,-0.51611;
18:42:15.383,0.39624,0.96582,-0.54077;
18:42:15.393,0.42383,0.97290,-0.54907;
18:42:15.403,0.44653,0.94067,-0.53198;
18:42:15.413,0.46313,0.91675,-0.50537;
18:42:15.423,0.47168,0.88989,-0.48828;
18:42:15.433,0.47485,0.85303,-0.46899;
18:42:15.443,0.47778,0.82300,-0.45557;
18:42:15.453,0.47925,0.78955,-0.42773;
18:42:15.463,0.49731,0.76807,-0.38940;
18:42:15.473,0.55371,0.76172,-0.37573;
18:42:15.483,0.62231,0.70752,-0.38501;
18:42:15.493,0.64160,0.69263,-0.38574;
18:42:15.503,0.67285,0.69116,-0.37256;
18:42:15.513,0.75854,0.64868,-0.41187;
18:42:15.523,0.75635,0.69019,-0.44849;
18:42:15.533,0.77490,0.71436,-0.44995;
18:42:15.543,0.77271,0.68286,-0.44653;
18:42:15.553,0.75806,0.66577,-0.43677;
18:42:15.563,0.76001,0.64941,-0.42578;
18:42:15.573,0.72876,0.61035,-0.42822;
18:42:15.583,0.71143,0.59277,-0.42285;
18:42:15.593,0.69800,0.60254,-0.43115;
18:42:15.603,0.67847,0.60498,-0.44604;
18:42:15.613,0.65479,0.59644,-0.48877;
18:42:15.623,0.63550,0.60107,-0.54785;
18:42:15.633,0.63281,0.64038,-0.60010;
18:42:15.643,0.61523,0.71509,-0.60059;
18:42:15.653,0.58472,0.71289,-0.52222;
18:42:15.663,0.66553,0.73975,-0.36621;
18:42:15.673,0.73535,0.75342,-0.46484;
18:42:15.683,0.85962,0.86670,-0.51489;
18:42:15.693,0.91602,0.88574,-0.45142;
18:42:15.703,0.90259,0.86475,-0.44580;
18:42:15.713,0.88574,0.80933,-0.45044;
18:42:15.723,0.88257,0.76343,-0.42554;
18:42:15.733,0.87061,0.70850,-0.39624;
18:42:15.743,0.85376,0.64795,-0.37402;
18:42:15.753,0.83521,0.60205,-0.36401;
18:42:15.763,0.82593,0.58130,-0.36646;
18:42:15.773,0.82104,0.57788,-0.36401;
18:42:15.783,0.83887,0.55713,-0.33765;
18:42:15.793,0.83496,0.51709,-0.32422;
18:42:15.803,0.81714,0.48486,-0.29834;
18:42:15.813,0.80957,0.44141,-0.24878;
18:42:15.823,0.77295,0.46704,-0.24902;
18:42:15.833,0.74561,0.52393,-0.25879;
18:42:15.843,0.70557,0.51563,-0.27197;
18:42:15.853,0.66553,0.52808,-0.27954;
18:42:15.863,0.62842,0.56250,-0.28882;
18:42:15.873,0.60986,0.58691,-0.32373;
18:42:15.883,0.64819,0.60278,-0.34399;
18:42:15.893,0.67456,0.62329,-0.36987;
18:42:15.903,0.68872,0.66626,-0.38647;
18:42:15.913,0.69849,0.72046,-0.37012;
18:42:15.923,0.70972,0.80322,-0.21509;
18:42:15.933,0.74683,0.83789,-0.20020;
18:42:15.943,0.72437,0.88818,-0.24390;
18:42:15.953,0.54541,0.95850,-0.26807;
18:42:15.963,0.60010,0.95923,-0.14648;
18:42:15.973,0.62573,0.97437,-0.06909;
18:42:15.983,0.63525,1.01221,0.00171;
18:42:15.993,0.63135,1.08569,0.05273;
18:42:16.003,0.64063,1.10327,0.09253;
18:42:16.013,0.66724,1.09814,0.11426;
18:42:16.023,0.71216,1.12109,0.12256;
18:42:16.033,0.76953,1.12427,0.14014;
18:42:16.043,0.83398,1.09204,0.18262;
18:42:16.053,0.91504,1.03101,0.23877;
18:42:16.063,0.99268,0.97144,0.30225;
18:42:16.073,1.02734,0.97046,0.36548;
18:42:16.083,0.99634,0.97412,0.43164;
18:42:16.093,0.92285,0.94092,0.50659;
18:42:16.103,0.89160,0.90112,0.56494;
18:42:16.113,0.93286,0.88770,0.55835;
18:42:16.123,0.95874,0.92871,0.48999;
18:42:16.133,0.93066,0.99463,0.37939;
18:42:16.143,0.88940,1.00635,0.32446;
18:42:16.153,0.87769,0.93140,0.36841;
18:42:16.163,0.86133,0.82153,0.37842;
18:42:16.173,0.85913,0.72437,0.35034;
18:42:16.183,0.89551,0.64355,0.38306;
18:42:16.193,0.92163,0.52466,0.27344;
18:42:16.203,0.91187,0.48608,0.20166;
18:42:16.213,1.02148,0.65674,0.25366;
18:42:16.223,1.07813,0.88867,0.16479;
18:42:16.233,1.01270,0.99829,0.29883;
18:42:16.243,1.00806,0.68311,0.62573;
18:42:16.253,1.13330,0.62671,0.64380;
18:42:16.263,1.22363,0.66235,0.61890;
18:42:16.273,1.23633,0.59570,0.62329;
18:42:16.283,1.24805,0.52588,0.70801;
18:42:16.293,1.34766,0.46875,0.84570;
18:42:16.303,1.38794,0.35449,0.99463;
18:42:16.313,1.28418,0.32861,1.16577;
18:42:16.323,1.18164,0.41455,1.20386;
18:42:16.333,1.13452,0.44751,1.19312;
18:42:16.343,1.01758,0.46362,1.15698;
18:42:16.353,0.86084,0.48730,1.02197;
18:42:16.363,0.75806,0.48657,0.80371;
18:42:16.373,0.61475,0.48193,0.63208;
18:42:16.383,0.49243,0.51489,0.45386;
18:42:16.393,0.35547,0.50391,0.17261;
18:42:16.403,0.23633,0.45874,-0.15039;
18:42:16.413,0.22095,0.39990,-0.64453;
18:42:16.423,0.22437,0.52075,-1.27075;
18:42:16.433,-0.09131,0.84351,-0.89819;
18:42:16.443,-0.02686,0.78638,-0.61084;
18:42:16.453,0.01636,0.74365,-0.42651;
18:42:16.463,0.00635,0.66309,-0.18066;
18:42:16.473,-0.00977,0.47412,0.05786;
18:42:16.483,0.08887,0.38013,0.24463;
18:42:16.493,0.28564,0.32593,0.33960;
18:42:16.503,0.52393,0.33350,0.37573;
18:42:16.513,1.01489,0.44946,0.21265;
18:42:16.523,1.18726,0.55981,0.24463;
18:42:16.533,1.23901,0.61182,0.30200;
18:42:16.543,1.27783,0.59375,0.45313;
18:42:16.553,1.26196,0.55835,0.51758;
18:42:16.563,1.24536,0.52612,0.55566;
18:42:16.573,1.19458,0.46313,0.55933;
18:42:16.583,1.13843,0.38574,0.55396;
18:42:16.593,1.07666,0.32935,0.53711;
18:42:16.603,1.03857,0.32446,0.49927;
18:42:16.613,0.99316,0.32153,0.44385;
18:42:16.623,0.95630,0.32715,0.37964;
18:42:16.633,0.93311,0.34229,0.33179;
18:42:16.643,0.91138,0.36475,0.32349;
18:42:16.653,0.88379,0.38672,0.33911;
18:42:16.663,0.85132,0.40088,0.35181;
18:42:16.673,0.82227,0.40894,0.35962;
18:42:16.683,0.79541,0.41455,0.36841;
18:42:16.693,0.77905,0.42163,0.37354;
18:42:16.703,0.77490,0.42749,0.37061;
18:42:16.713,0.75977,0.41895,0.37231;
18:42:16.723,0.74048,0.39893,0.38501;
18:42:16.733,0.74072,0.38599,0.40381;
18:42:16.743,0.75830,0.37402,0.41797;
18:42:16.753,0.77246,0.37402,0.42334;
18:42:16.763,0.78760,0.39331,0.40698;
18:42:16.773,0.78784,0.41797,0.39478;
18:42:16.783,0.78369,0.43115,0.39160;
18:42:16.793,0.78931,0.43384,0.41406;
18:42:16.803,0.78784,0.46021,0.42993;
18:42:16.813,0.79712,0.43701,0.43945;
18:42:16.823,0.79272,0.40356,0.45020;
18:42:16.833,0.77515,0.37964,0.45850;
18:42:16.843,0.77808,0.35742,0.46216;
18:42:16.853,0.78979,0.33740,0.45239;
18:42:16.863,0.80249,0.32153,0.44824;
18:42:16.873,0.82007,0.33350,0.45386;
18:42:16.883,0.85400,0.36084,0.45142;
18:42:16.893,0.88477,0.37207,0.44238;
18:42:16.903,0.92700,0.36548,0.41357;
18:42:16.913,0.98193,0.40112,0.42188;
18:42:16.923,1.01172,0.40112,0.43774;
18:42:16.933,1.03540,0.41675,0.45581;
18:42:16.943,1.05688,0.45361,0.46582;
18:42:16.953,1.09814,0.49854,0.46851;
18:42:16.963,1.09375,0.51563,0.47168;
18:42:16.973,1.09351,0.52148,0.48560;
18:42:16.983,1.09033,0.54761,0.50464;
18:42:16.993,1.06763,0.54858,0.49902;
18:42:17.003,1.05981,0.53735,0.49341;
18:42:17.013,1.04468,0.51855,0.49316;
18:42:17.023,1.01147,0.48291,0.49316;
18:42:17.033,0.97339,0.45337,0.48828;
18:42:17.043,0.96973,0.44214,0.47363;
18:42:17.053,0.95776,0.43555,0.43945;
18:42:17.063,0.93481,0.42041,0.38354;
18:42:17.073,0.89966,0.38940,0.32666;
18:42:17.083,0.85938,0.35889,0.29395;
18:42:17.093,0.84326,0.34888,0.28052;
18:42:17.103,0.80933,0.33569,0.27173;
18:42:17.113,0.77661,0.32202,0.26514;
18:42:17.123,0.76294,0.31372,0.26440;
18:42:17.133,0.74487,0.30127,0.25537;
18:42:17.143,0.71655,0.28564,0.22314;
18:42:17.153,0.67480,0.25171,0.18921;
18:42:17.163,0.63916,0.20972,0.16943;
18:42:17.173,0.62549,0.19092,0.15454;
18:42:17.183,0.60400,0.17749,0.14917;
18:42:17.193,0.58740,0.17603,0.13330;
18:42:17.203,0.58984,0.19678,0.10107;
18:42:17.213,0.58569,0.19482,0.08228;
18:42:17.223,0.58008,0.15698,0.08179;
18:42:17.233,0.57153,0.16528,0.09912;
18:42:17.243,0.56909,0.19092,0.11182;
18:42:17.253,0.57227,0.18066,0.11133;
18:42:17.263,0.57300,0.17505,0.11255;
18:42:17.273,0.56714,0.16113,0.11084;
18:42:17.283,0.56812,0.15430,0.10303;
18:42:17.293,0.57007,0.15112,0.08618;
18:42:17.303,0.56860,0.16284,0.05859;
18:42:17.313,0.59253,0.22119,0.03198;
18:42:17.323,0.61597,0.30200,0.00439;
18:42:17.333,0.66309,0.40283,-0.07275;
18:42:17.343,0.73804,0.48511,-0.18384;
18:42:17.353,0.72437,0.47974,0.00903;
18:42:17.363,0.96021,1.00952,0.22363;
18:42:17.373,0.97021,0.94727,0.31934;
18:42:17.383,0.96997,0.87451,0.29907;
18:42:17.393,0.97339,0.83179,0.30225;
18:42:17.403,0.98633,0.81104,0.31372;
18:42:17.413,0.96753,0.78027,0.33105;
18:42:17.423,0.97681,0.76831,0.34668;
18:42:17.433,0.96118,0.78174,0.34717;
18:42:17.443,0.94043,0.78564,0.34473;
18:42:17.453,0.92236,0.76855,0.33057;
18:42:17.463,0.89648,0.72559,0.29980;
18:42:17.473,0.87842,0.67798,0.27368;
18:42:17.483,0.84277,0.65527,0.24976;
18:42:17.493,0.79541,0.62280,0.23535;
18:42:17.503,0.74951,0.61523,0.23633;
18:42:17.513,0.69824,0.65430,0.23853;
18:42:17.523,0.64502,0.72095,0.24683;
18:42:17.533,0.59155,0.77612,0.25757;
18:42:17.543,0.53735,0.80957,0.26758;
18:42:17.553,0.50586,0.81104,0.25830;
18:42:17.563,0.49292,0.80518,0.24390;
18:42:17.573,0.48877,0.80811,0.22852;
18:42:17.583,0.48730,0.80127,0.21289;
18:42:17.593,0.48413,0.78687,0.20630;
18:42:17.603,0.48071,0.76904,0.22461;
18:42:17.613,0.48584,0.74121,0.25073;
18:42:17.623,0.49707,0.71509,0.26563;
18:42:17.633,0.49951,0.68994,0.26660;
18:42:17.643,0.52319,0.70679,0.23950;
18:42:17.653,0.58496,0.72852,0.20215;
18:42:17.663,0.61353,0.73291,0.19092;
18:42:17.673,0.62500,0.74048,0.20337;
18:42:17.683,0.63208,0.72607,0.21265;
18:42:17.693,0.63330,0.70117,0.22510;
18:42:17.703,0.65259,0.69385,0.24268;
18:42:17.713,0.67358,0.68457,0.25562;
18:42:17.723,0.67944,0.67969,0.26001;
18:42:17.733,0.69556,0.69019,0.25928;
18:42:17.743,0.71021,0.71729,0.26270;
18:42:17.753,0.72803,0.75024,0.26465;
18:42:17.763,0.71460,0.83862,0.26563;
18:42:17.773,0.67896,0.86987,0.26709;
18:42:17.783,0.67529,0.82446,0.27881;
18:42:17.793,0.70874,0.76147,0.28125;
18:42:17.803,0.72412,0.81152,0.28223;
18:42:17.813,0.80737,0.74561,0.26416;
18:42:17.823,0.73853,0.78784,0.21240;
18:42:17.833,0.67627,0.84839,0.16138;
18:42:17.843,0.73071,0.82422,0.15576;
18:42:17.853,0.70630,0.82251,0.15381;
18:42:17.863,0.70288,0.80811,0.15210;
18:42:17.873,0.69800,0.82959,0.14917;
18:42:17.883,0.69873,0.81445,0.14038;
18:42:17.893,0.69067,0.79639,0.14185;
18:42:17.903,0.69507,0.77441,0.15405;
18:42:17.913,0.72852,0.85400,0.15991;
18:42:17.923,0.72217,0.89893,0.15332;
18:42:17.933,0.72217,0.89624,0.15430;
18:42:17.943,0.73315,0.90283,0.15698;
18:42:17.953,0.74756,0.91382,0.15039;
18:42:17.963,0.75684,0.92798,0.14233;
18:42:17.973,0.75391,0.91357,0.13379;
18:42:17.983,0.73706,0.88550,0.12231;
18:42:17.993,0.72217,0.87134,0.10864;
18:42:18.003,0.70898,0.85156,0.09570;
18:42:18.013,0.69189,0.84082,0.09766;
18:42:18.023,0.67822,0.82764,0.09448;
18:42:18.033,0.66650,0.79321,0.08374;
18:42:18.043,0.66406,0.76074,0.06519;
18:42:18.053,0.66260,0.75806,0.04956;
18:42:18.063,0.64941,0.77319,0.04614;
18:42:18.073,0.64185,0.80078,0.04761;
18:42:18.083,0.63110,0.82861,0.03833;
18:42:18.093,0.61328,0.83887,0.03076;
18:42:18.103,0.61328,0.84082,0.03345;
18:42:18.113,0.61426,0.84180,0.03711;
18:42:18.123,0.61841,0.83228,0.03711;
18:42:18.133,0.61597,0.82275,0.02686;
18:42:18.143,0.60400,0.83716,0.03101;
18:42:18.153,0.60693,0.87866,0.03052;
18:42:18.163,0.61523,0.90308,0.04565;
18:42:18.173,0.61084,0.89600,0.06860;
18:42:18.183,0.61011,0.88037,0.06104;
18:42:18.193,0.62964,0.85962,0.04810;
18:42:18.203,0.61450,0.87476,0.03613;
18:42:18.213,0.60449,0.88403,0.02319;
18:42:18.223,0.57471,0.87158,0.01221;
18:42:18.233,0.55200,0.85913,0.01685;
18:42:18.243,0.55078,0.84521,0.03320;
18:42:18.253,0.56519,0.82397,0.04370;
18:42:18.263,0.56519,0.81470,0.04028;
18:42:18.273,0.53979,0.79980,0.04858;
18:42:18.283,0.51855,0.78296,0.05273;
18:42:18.293,0.52539,0.80005,0.05713;
18:42:18.303,0.54736,0.81519,0.06519;
18:42:18.313,0.55737,0.83838,0.06470;
18:42:18.323,0.55542,0.86523,0.04395;
18:42:18.333,0.53931,0.86182,0.02100;
18:42:18.343,0.52197,0.84082,0.02026;
18:42:18.353,0.51709,0.81152,0.03735;
18:42:18.363,0.52563,0.79590,0.06543;
18:42:18.373,0.52979,0.76514,0.09546;
18:42:18.383,0.52710,0.75928,0.10693;
18:42:18.393,0.51563,0.77588,0.08960;
18:42:18.403,0.48926,0.77271,0.05176;
18:42:18.413,0.48364,0.78735,0.01318;
18:42:18.423,0.51733,0.83008,-0.00879;
18:42:18.433,0.52759,0.86182,-0.01245;
18:42:18.443,0.50977,0.85254,-0.01221;
18:42:18.453,0.51636,0.86694,-0.02612;
18:42:18.463,0.52563,0.87646,-0.02515;
18:42:18.473,0.51367,0.83203,-0.02002;
18:42:18.483,0.55298,0.76221,-0.01465;
18:42:18.493,0.58203,0.78101,-0.06030;
18:42:18.503,0.59790,0.74854,-0.08423;
18:42:18.513,0.64136,0.74365,-0.08984;
18:42:18.523,0.68530,0.79858,-0.06592;
18:42:18.533,0.71582,0.87354,-0.05078;
18:42:18.543,0.77222,0.87842,-0.16089;
18:42:18.553,0.78394,0.84058,-0.21240;
18:42:18.563,0.78784,0.79419,-0.25317;
18:42:18.573,0.76221,0.76343,-0.29199;
18:42:18.583,0.74780,0.74634,-0.32153;
18:42:18.593,0.76245,0.73022,-0.32373;
18:42:18.603,0.76636,0.70215,-0.33105;
18:42:18.613,0.76416,0.64697,-0.34375;
18:42:18.623,0.76978,0.59082,-0.35767;
18:42:18.633,0.76904,0.54834,-0.36694;
18:42:18.643,0.78247,0.50562,-0.37793;
18:42:18.653,0.81055,0.55469,-0.36206;
18:42:18.663,0.79980,0.66431,-0.34326;
18:42:18.673,0.78613,0.69751,-0.38965;
18:42:18.683,0.78931,0.69873,-0.44067;
18:42:18.693,0.79053,0.67163,-0.45728;
18:42:18.703,0.77222,0.58325,-0.44922;
18:42:18.713,0.76050,0.50293,-0.41675;
18:42:18.723,0.76489,0.52173,-0.35059;
18:42:18.733,0.78735,0.69434,-0.30469;
18:42:18.743,0.80371,0.79517,-0.33765;
18:42:18.753,0.74976,0.71655,-0.34106;
18:42:18.763,0.71631,0.73340,-0.42041;
18:42:18.773,0.72705,0.68872,-0.42993;
18:42:18.783,0.74854,0.64551,-0.42676;
18:42:18.793,0.77588,0.65771,-0.41382;
18:42:18.803,0.78589,0.66406,-0.41504;
18:42:18.813,0.77393,0.63989,-0.40234;
18:42:18.823,0.74854,0.58838,-0.38770;
18:42:18.833,0.75952,0.54443,-0.32251;
18:42:18.843,0.73486,0.53320,-0.25513;
18:42:18.853,0.69971,0.57056,-0.23071;
18:42:18.863,0.68579,0.63550,-0.23608;
18:42:18.873,0.63525,0.64795,-0.28564;
18:42:18.883,0.59448,0.64600,-0.28296;
18:42:18.893,0.57813,0.61035,-0.26270;
18:42:18.903,0.55664,0.52783,-0.24927;
18:42:18.913,0.55078,0.48828,-0.19751;
18:42:18.923,0.53662,0.46509,-0.10547;
18:42:18.933,0.52197,0.48218,0.00244;
18:42:18.943,0.49731,0.58472,0.11035;
18:42:18.953,0.45679,0.66187,0.13306;
18:42:18.963,0.42285,0.73804,0.08643;
18:42:18.973,0.39453,0.70264,0.09863;
18:42:18.983,0.36230,0.63306,0.12451;
18:42:18.993,0.34399,0.69067,0.16333;
18:42:19.003,0.34814,0.66699,0.22778;
18:42:19.013,0.31885,0.61987,0.28613;
18:42:19.023,0.34546,0.51270,0.38672;
18:42:19.033,0.37817,0.41553,0.62134;
18:42:19.043,0.42358,0.49878,0.65942;
18:42:19.053,0.42676,0.71606,0.64917;
18:42:19.063,0.47998,0.84106,0.59766;
18:42:19.073,0.51367,0.73657,0.32959;
18:42:19.083,0.59326,0.72266,0.34814;
18:42:19.093,0.64282,0.80444,0.44873;
18:42:19.103,0.69482,0.87988,0.47900;
18:42:19.113,0.68848,0.85767,0.46655;
18:42:19.123,0.58789,0.83545,0.44165;
18:42:19.133,0.49219,0.83203,0.41113;
18:42:19.143,0.39746,0.83521,0.32324;
18:42:19.153,0.31274,0.79077,0.27368;
18:42:19.163,0.29614,0.70239,0.28418;
18:42:19.173,0.28979,0.64136,0.30078;
18:42:19.183,0.29663,0.60400,0.30933;
18:42:19.193,0.28101,0.59229,0.25977;
18:42:19.203,0.23486,0.65601,0.22827;
18:42:19.213,0.19800,0.73560,0.24194;
18:42:19.223,0.18726,0.73389,0.27271;
18:42:19.233,0.20142,0.77759,0.31616;
18:42:19.243,0.23926,0.85400,0.35327;
18:42:19.253,0.21680,0.95752,0.51953;
18:42:19.263,-0.09155,0.74170,0.00098;
18:42:19.273,0.01636,0.60498,0.00513;
18:42:19.283,0.33887,0.50171,0.54053;
18:42:19.293,0.61353,0.91333,0.69971;
18:42:19.303,1.13770,1.05200,0.54639;
18:42:19.313,1.24048,0.97412,0.52393;
18:42:19.323,1.36035,1.05176,0.49390;
18:42:19.333,1.44409,1.01587,0.46704;
18:42:19.343,1.42920,0.81226,0.42285;
18:42:19.353,1.29053,0.70752,0.34399;
18:42:19.363,1.19507,0.71240,0.26416;
18:42:19.373,1.17310,0.76001,0.21265;
18:42:19.383,1.15210,0.76953,0.23755;
18:42:19.393,1.15430,0.69312,0.35278;
18:42:19.403,1.16650,0.62012,0.39819;
18:42:19.413,1.23267,0.52319,0.37646;
18:42:19.423,1.37354,0.34009,0.48315;
18:42:19.433,-0.30981,0.84839,0.19092;
18:42:19.443,0.03003,0.88232,0.03174;
18:42:19.453,0.10864,0.86548,0.10571;
18:42:19.463,0.12500,0.90430,0.14160;
18:42:19.473,0.16211,0.93970,0.15723;
18:42:19.483,0.23169,0.93848,0.19092;
18:42:19.493,0.31714,0.92798,0.23291;
18:42:19.503,0.39746,0.92700,0.26416;
18:42:19.513,0.46509,0.93896,0.28101;
18:42:19.523,0.60815,0.96655,0.28735;
18:42:19.533,0.65894,0.98315,0.27881;
18:42:19.543,0.67822,1.00195,0.28076;
18:42:19.553,0.70972,0.99561,0.29224;
18:42:19.563,0.72852,0.96313,0.28711;
18:42:19.573,0.73950,0.91064,0.26733;
18:42:19.583,0.73096,0.87378,0.24951;
18:42:19.593,0.72388,0.88647,0.22510;
18:42:19.603,0.74609,0.90405,0.19849;
18:42:19.613,0.74756,0.87476,0.17114;
18:42:19.623,0.74487,0.81250,0.15576;
18:42:19.633,0.73975,0.77661,0.15381;
18:42:19.643,0.71265,0.74683,0.13574;
18:42:19.653,0.68701,0.70313,0.11841;
18:42:19.663,0.64868,0.67456,0.10938;
18:42:19.673,0.60742,0.65308,0.09863;
18:42:19.683,0.58667,0.65576,0.10181;
18:42:19.693,0.56104,0.66187,0.10083;
18:42:19.703,0.52930,0.69409,0.08936;
18:42:19.713,0.49512,0.79907,0.06372;
18:42:19.723,0.49219,0.83179,0.08838;
18:42:19.733,0.49316,0.83350,0.10254;
18:42:19.743,0.49487,0.85132,0.11597;
18:42:19.753,0.48657,0.88672,0.14038;
18:42:19.763,0.48267,0.93237,0.17383;
18:42:19.773,0.48584,0.99609,0.19727;
18:42:19.783,0.49780,1.03149,0.24341;
18:42:19.793,0.50488,0.99316,0.25073;
18:42:19.803,0.51636,0.97021,0.26245;
18:42:19.813,0.53662,0.95776,0.28247;
18:42:19.823,0.54883,0.94214,0.29321;
18:42:19.833,0.55908,0.92236,0.29492;
18:42:19.843,0.57471,0.90063,0.30151;
18:42:19.853,0.58496,0.88647,0.30347;
18:42:19.863,0.58936,0.88599,0.29224;
18:42:19.873,0.58301,0.88843,0.27246;
18:42:19.883,0.57471,0.88574,0.25708;
18:42:19.893,0.56787,0.88770,0.23511;
18:42:19.903,0.56958,0.89258,0.20020;
18:42:19.913,0.57056,0.88159,0.16479;
18:42:19.923,0.57153,0.86377,0.13989;
18:42:19.933,0.57544,0.83984,0.11890;
18:42:19.943,0.57886,0.82690,0.09912;
18:42:19.953,0.57690,0.82471,0.08325;
18:42:19.963,0.57007,0.82251,0.07251;
18:42:19.973,0.56470,0.82007,0.06836;
18:42:19.983,0.56543,0.81226,0.06934;
18:42:19.993,0.58203,0.82739,0.06006;
18:42:20.003,0.58594,0.81836,0.06934;
18:42:20.013,0.58350,0.80786,0.07642;
18:42:20.023,0.58008,0.80396,0.08911;
18:42:20.033,0.57910,0.80664,0.10645;
18:42:20.043,0.58203,0.81055,0.12427;
18:42:20.053,0.58447,0.81104,0.13452;
18:42:20.063,0.58911,0.80786,0.13647;
18:42:20.073,0.59253,0.80151,0.14282;
18:42:20.083,0.59937,0.79053,0.14258;
18:42:20.093,0.60986,0.78247,0.14233;
18:42:20.103,0.61475,0.77393,0.13867;
18:42:20.113,0.61865,0.76245,0.13135;
18:42:20.123,0.62036,0.75415,0.13062;
18:42:20.133,0.62915,0.73999,0.12598;
18:42:20.143,0.64160,0.73291,0.11694;
18:42:20.153,0.64746,0.72485,0.11108;
18:42:20.163,0.66357,0.71167,0.10400;
18:42:20.173,0.69434,0.69971,0.09521;
18:42:20.183,0.70898,0.69141,0.08398;
18:42:20.193,0.70801,0.68066,0.07397;
18:42:20.203,0.71973,0.66748,0.06543;
18:42:20.213,0.72754,0.66284,0.05811;
18:42:20.223,0.75024,0.66064,0.04736;
18:42:20.233,0.77856,0.65894,0.02612;
18:42:20.243,0.79102,0.66064,0.00098;
18:42:20.253,0.81299,0.66943,-0.02002;
18:42:20.263,0.82178,0.67847,-0.02368;
18:42:20.273,0.82275,0.68286,-0.02612;
18:42:20.283,0.81079,0.68408,-0.02246;
18:42:20.293,0.78076,0.72412,-0.01172;
18:42:20.303,0.77783,0.74634,-0.01001;
18:42:20.313,0.77588,0.76636,-0.00635;
18:42:20.323,0.77319,0.77808,0.00049;
18:42:20.333,0.77075,0.78735,0.00952;
18:42:20.343,0.76514,0.78931,0.01489;
18:42:20.353,0.75171,0.78394,0.01782;
18:42:20.363,0.73315,0.77222,0.02002;
18:42:20.373,0.71191,0.74487,0.01245;
18:42:20.383,0.69238,0.71582,0.00659;
18:42:20.393,0.67432,0.69312,0.00952;
18:42:20.403,0.66260,0.67041,0.01099;
18:42:20.413,0.65674,0.65356,0.01392;
18:42:20.423,0.65747,0.64014,0.01855;
18:42:20.433,0.66016,0.63306,0.02344;
18:42:20.443,0.65967,0.63330,0.02954;
18:42:20.453,0.66748,0.63599,0.03540;
18:42:20.463,0.68823,0.63892,0.03857;
18:42:20.473,0.70410,0.64111,0.04126;
18:42:20.483,0.71265,0.64624,0.04004;
18:42:20.493,0.72021,0.64673,0.03345;
18:42:20.503,0.72021,0.65088,0.02710;
18:42:20.513,0.73926,0.66040,0.01904;
18:42:20.523,0.75391,0.66748,0.00903;
18:42:20.533,0.75488,0.67456,-0.00269;
18:42:20.543,0.75977,0.68213,-0.01025;
18:42:20.553,0.76270,0.69019,-0.01904;
18:42:20.563,0.76001,0.70020,-0.03491;
18:42:20.573,0.76294,0.70581,-0.04150;
18:42:20.583,0.76636,0.72461,-0.04565;
18:42:20.593,0.74390,0.72632,-0.03101;
18:42:20.603,0.73193,0.73389,-0.01733;
18:42:20.613,0.72192,0.73975,-0.00513;
18:42:20.623,0.71362,0.74268,-0.00366;
18:42:20.633,0.70874,0.73828,0.00220;
18:42:20.643,0.70776,0.73022,0.01172;
18:42:20.653,0.70825,0.72046,0.01636;
18:42:20.663,0.70190,0.71973,0.01880;
18:42:20.673,0.70850,0.71411,0.02246;
18:42:20.683,0.70972,0.71021,0.02393;
18:42:20.693,0.71509,0.71826,0.02271;
18:42:20.703,0.74438,0.72607,0.02515;
18:42:20.713,0.75708,0.73706,0.02637;
18:42:20.723,0.77246,0.75562,0.03955;
18:42:20.733,0.78979,0.74194,0.06543;
18:42:20.743,0.77051,0.72778,0.06641;
18:42:20.753,0.74268,0.72681,0.06348;
18:42:20.763,0.71875,0.72852,0.05664;
18:42:20.773,0.70264,0.72607,0.05249;
18:42:20.783,0.69165,0.73096,0.04492;
18:42:20.793,0.67578,0.73462,0.03882;
18:42:20.803,0.66162,0.74341,0.03857;
18:42:20.813,0.65332,0.75293,0.03369;
18:42:20.823,0.65039,0.76392,0.02930;
18:42:20.833,0.64966,0.77002,0.03052;
18:42:20.843,0.63501,0.78906,0.04102;
18:42:20.853,0.63013,0.81372,0.04517;
18:42:20.863,0.62646,0.81860,0.04492;
18:42:20.873,0.62256,0.82153,0.04688;
18:42:20.883,0.61499,0.82251,0.04663;
18:42:20.893,0.60718,0.82275,0.04468;
18:42:20.903,0.60059,0.82446,0.04932;
18:42:20.913,0.59741,0.83057,0.04761;
18:42:20.923,0.59888,0.83057,0.04761;
18:42:20.933,0.59814,0.82104,0.05176;
18:42:20.943,0.58618,0.82153,0.05347;
18:42:20.953,0.58154,0.82129,0.05835;
18:42:20.963,0.57739,0.81201,0.06152;
18:42:20.973,0.57300,0.81079,0.06445;
18:42:20.983,0.57129,0.80762,0.06860;
18:42:20.993,0.56934,0.81177,0.07202;
18:42:21.003,0.56885,0.81519,0.07690;
18:42:21.013,0.56470,0.81641,0.07715;
18:42:21.023,0.56689,0.81787,0.07788;
18:42:21.033,0.56641,0.81982,0.08252;
18:42:21.043,0.56372,0.82446,0.07959;
18:42:21.053,0.56201,0.83179,0.08252;
18:42:21.063,0.56177,0.83862,0.08691;
18:42:21.073,0.55811,0.84473,0.08203;
18:42:21.083,0.55420,0.85205,0.07471;
18:42:21.093,0.55396,0.85327,0.07275;
18:42:21.103,0.55005,0.85913,0.06934;
18:42:21.113,0.54590,0.86621,0.06396;
18:42:21.123,0.54175,0.87134,0.05859;
18:42:21.133,0.53491,0.88989,0.06030;
18:42:21.143,0.53149,0.88232,0.06372;
18:42:21.153,0.52954,0.87427,0.06885;
18:42:21.163,0.52808,0.87012,0.07373;
18:42:21.173,0.53125,0.86963,0.07959;
18:42:21.183,0.53027,0.85962,0.07837;
18:42:21.193,0.53076,0.85132,0.08154;
18:42:21.203,0.53394,0.84814,0.08423;
18:42:21.213,0.53711,0.85107,0.08252;
18:42:21.223,0.54175,0.85693,0.08521;
18:42:21.233,0.54346,0.85864,0.08472;
18:42:21.243,0.54175,0.85938,0.08789;
18:42:21.253,0.54126,0.86011,0.09106;
18:42:21.263,0.54321,0.86353,0.08350;
18:42:21.273,0.54639,0.86597,0.07861;
18:42:21.283,0.54688,0.86768,0.07593;
18:42:21.293,0.54419,0.86523,0.07690;
18:42:21.303,0.54224,0.86523,0.07568;
18:42:21.313,0.54224,0.87207,0.07031;
18:42:21.323,0.54224,0.87402,0.07104;
18:42:21.333,0.54077,0.87402,0.07568;
18:42:21.343,0.54028,0.87451,0.07837;
18:42:21.353,0.54028,0.87891,0.07788;
18:42:21.363,0.54077,0.87549,0.08057;
18:42:21.373,0.54150,0.87109,0.08203;
18:42:21.383,0.53857,0.86890,0.07983;
18:42:21.393,0.53857,0.86670,0.07910;
18:42:21.403,0.53955,0.86548,0.08105;
18:42:21.413,0.54126,0.86133,0.08423;
18:42:21.423,0.54541,0.86841,0.08301;
18:42:21.433,0.54761,0.86548,0.08374;
18:42:21.443,0.54761,0.86621,0.08350;
18:42:21.453,0.54810,0.86548,0.08008;
18:42:21.463,0.54663,0.86035,0.07959;
18:42:21.473,0.54297,0.85596,0.08105;
18:42:21.483,0.54517,0.85498,0.08008;
18:42:21.493,0.54565,0.85474,0.08154;
18:42:21.503,0.54419,0.85400,0.08423;
18:42:21.513,0.54224,0.85693,0.08716;
18:42:21.523,0.54419,0.86182,0.08325;
18:42:21.533,0.54395,0.86475,0.07788;
18:42:21.543,0.54395,0.86621,0.07788;
18:42:21.553,0.54565,0.86768,0.07690;
18:42:21.563,0.54663,0.87036,0.07275;
18:42:21.573,0.54956,0.86792,0.07349;
18:42:21.583,0.54980,0.86621,0.07568;
18:42:21.593,0.54932,0.86426,0.07520;
18:42:21.603,0.54639,0.85913,0.07837;
18:42:21.613,0.54346,0.85327,0.07813;
18:42:21.623,0.54150,0.85181,0.08032;
18:42:21.633,0.54224,0.85132,0.08301;
18:42:21.643,0.54370,0.85327,0.07813;
18:42:21.653,0.54370,0.85522,0.08057;
18:42:21.663,0.54492,0.85913,0.08325;
18:42:21.673,0.54443,0.86157,0.07837;
18:42:21.683,0.54541,0.85938,0.07690;
18:42:21.693,0.55054,0.85815,0.07617;
18:42:21.703,0.55371,0.85352,0.07471;
18:42:21.713,0.55127,0.85156,0.08301;
18:42:21.723,0.54834,0.85669,0.07715;
18:42:21.733,0.54956,0.85474,0.07471;
18:42:21.743,0.55029,0.85596,0.07373;
18:42:21.753,0.54810,0.85693,0.07300;
18:42:21.763,0.55029,0.85327,0.07153;
18:42:21.773,0.54980,0.85010,0.07178;
18:42:21.783,0.54590,0.84863,0.06982;
18:42:21.793,0.54639,0.84814,0.06836;
18:42:21.803,0.54199,0.84741,0.07275;
18:42:21.813,0.54346,0.84741,0.07471;
18:42:21.823,0.54883,0.85034,0.07373;
18:42:21.833,0.54883,0.85327,0.07275;
18:42:21.843,0.55029,0.85205,0.07422;
18:42:21.853,0.55005,0.85327,0.07251;
18:42:21.863,0.55322,0.85303,0.06909;
18:42:21.873,0.55591,0.85352,0.06372;
18:42:21.883,0.55444,0.85449,0.06299;
18:42:21.893,0.55542,0.85034,0.06201;
18:42:21.903,0.55591,0.84668,0.06396;
18:42:21.913,0.55493,0.84668,0.06763;
18:42:21.923,0.55347,0.84595,0.06348;
18:42:21.933,0.55273,0.84668,0.06323;
18:42:21.943,0.55396,0.85083,0.06396;
18:42:21.953,0.55371,0.85205,0.06104;
18:42:21.963,0.55005,0.85303,0.06152;
18:42:21.973,0.55371,0.85449,0.05957;
18:42:21.983,0.55542,0.85425,0.06104;
18:42:21.993,0.55420,0.85010,0.06152;
18:42:22.003,0.55273,0.84058,0.06421;
18:42:22.013,0.54956,0.84253,0.06226;
18:42:22.023,0.54956,0.84790,0.06030;
18:42:22.033,0.55298,0.85547,0.06104;
18:42:22.043,0.55347,0.85840,0.05615;
18:42:22.053,0.55347,0.85596,0.05444;
18:42:22.063,0.55493,0.85449,0.05518;
18:42:22.073,0.55542,0.85645,0.05542;
18:42:22.083,0.55396,0.85303,0.05469;
18:42:22.093,0.55542,0.85278,0.05615;
18:42:22.103,0.55542,0.85327,0.05811;
18:42:22.113,0.55420,0.84985,0.05688;
18:42:22.123,0.55078,0.84912,0.05640;
18:42:22.133,0.54956,0.84961,0.05859;
18:42:22.143,0.55029,0.85303,0.05591;
18:42:22.153,0.55200,0.85400,0.05566;
18:42:22.163,0.55298,0.85376,0.05420;
18:42:22.173,0.55469,0.85156,0.05811;
18:42:22.183,0.55957,0.85303,0.06006;
18:42:22.193,0.55737,0.85596,0.05762;
18:42:22.203,0.55688,0.85425,0.05859;
18:42:22.213,0.56030,0.85010,0.05933;
18:42:22.223,0.55859,0.84204,0.05908;
18:42:22.233,0.55591,0.84033,0.06104;
18:42:22.243,0.55615,0.84082,0.06030;
18:42:22.253,0.55444,0.84351,0.06299;
18:42:22.263,0.55322,0.84595,0.06421;
18:42:22.273,0.55298,0.85303,0.05835;
18:42:22.283,0.55273,0.85620,0.05420;
18:42:22.293,0.55542,0.85596,0.05396;
18:42:22.303,0.55518,0.85229,0.05322;
18:42:22.313,0.55420,0.84668,0.05444;
18:42:22.323,0.55347,0.84521,0.05713;
18:42:22.333,0.55225,0.84497,0.05811;
18:42:22.343,0.55249,0.84717,0.06152;
18:42:22.353,0.55322,0.84668,0.05957;
18:42:22.363,0.55127,0.84937,0.06104;
18:42:22.373,0.55200,0.85205,0.06006;
18:42:22.383,0.55151,0.85376,0.05811;
18:42:22.393,0.55151,0.85352,0.05981;
18:42:22.403,0.55273,0.85132,0.05615;
18:42:22.413,0.55249,0.85254,0.05713;
18:42:22.423,0.55469,0.85303,0.05835;
18:42:22.433,0.55371,0.85205,0.05566;
18:42:22.443,0.55322,0.84961,0.05713;
18:42:22.453,0.55469,0.84766,0.05469;
18:42:22.463,0.55396,0.84644,0.05713;
18:42:22.473,0.55469,0.84985,0.05933;
18:42:22.483,0.55566,0.84912,0.05566;
18:42:22.493,0.55737,0.84595,0.05859;
18:42:22.503,0.55713,0.84570,0.06079;
18:42:22.513,0.55542,0.84375,0.05737;
18:42:22.523,0.55347,0.84351,0.05688;
18:42:22.533,0.55249,0.84473,0.05591;
18:42:22.543,0.55273,0.84766,0.05933;
18:42:22.553,0.55127,0.84692,0.06250;
18:42:22.563,0.55029,0.85181,0.05835;
18:42:22.573,0.55029,0.85986,0.05811;
18:42:22.583,0.55566,0.86353,0.05200;
18:42:22.593,0.55591,0.85596,0.05566;
18:42:22.603,0.55591,0.85254,0.05786;
18:42:22.613,0.55591,0.84668,0.06030;
18:42:22.623,0.56030,0.84082,0.06348;
18:42:22.633,0.55762,0.84009,0.06445;
18:42:22.643,0.55908,0.84082,0.06470;
18:42:22.653,0.55811,0.84155,0.06396;
18:42:22.663,0.55811,0.84399,0.06152;
18:42:22.673,0.56201,0.84595,0.06079;
18:42:22.683,0.56104,0.84595,0.06030;
18:42:22.693,0.56372,0.84546,0.05933;
18:42:22.703,0.56348,0.84570,0.06128;
18:42:22.713,0.56372,0.84668,0.06128;
18:42:22.723,0.57031,0.84937,0.05859;
18:42:22.733,0.58008,0.85693,0.05713;
18:42:22.743,0.58911,0.86011,0.05103;
18:42:22.753,0.59033,0.85986,0.04858;
18:42:22.763,0.59375,0.86865,0.04102;
18:42:22.773,0.61279,0.89355,0.03125;
18:42:22.783,0.63989,0.91992,0.01953;
18:42:22.793,0.68555,0.95068,-0.01636;
18:42:22.803,0.75415,1.01123,-0.10278;
18:42:22.813,0.78613,1.04126,-0.16211;
18:42:22.823,0.81763,1.04663,-0.17017;
18:42:22.833,0.86646,1.05811,-0.14746;
18:42:22.843,0.90796,1.06030,-0.11963;
18:42:22.853,0.94604,1.06201,-0.11670;
18:42:22.863,1.08008,1.08276,-0.18677;
18:42:22.873,0.84302,1.11792,-0.26953;
18:42:22.883,0.76367,1.13477,-0.33911;
18:42:22.893,0.69312,1.14868,-0.37622;
18:42:22.903,0.53394,1.09009,-0.41528;
18:42:22.913,0.41675,1.02173,-0.42798;
18:42:22.923,0.35986,0.95215,-0.40601;
18:42:22.933,0.35059,0.90259,-0.39575;
18:42:22.943,0.33813,0.92944,-0.34741;
18:42:22.953,0.27148,1.02417,-0.28979;
18:42:22.963,0.24194,1.13745,-0.25293;
18:42:22.973,0.19727,1.26587,-0.20361;
18:42:22.983,0.17603,1.35864,-0.14795;
18:42:22.993,0.15771,1.34082,-0.08643;
18:42:23.003,0.09741,1.27808,-0.02222;
18:42:23.013,0.04468,1.21265,0.05762;
18:42:23.023,0.05103,1.17236,0.11890;
18:42:23.033,0.08936,1.13574,0.15674;
18:42:23.043,0.12451,1.07104,0.18970;
18:42:23.053,0.07642,1.02466,0.21167;
18:42:23.063,-0.01147,1.02417,0.21216;
18:42:23.073,-0.00342,1.07349,0.20850;
18:42:23.083,0.05762,1.12476,0.18994;
18:42:23.093,0.07690,1.13647,0.16162;
18:42:23.103,0.05786,1.11792,0.11963;
18:42:23.113,0.00903,1.09985,0.07544;
18:42:23.123,-0.02710,1.11792,0.02979;
18:42:23.133,-0.03174,1.16602,-0.01196;
18:42:23.143,0.02563,1.16724,-0.04834;
18:42:23.153,0.09448,0.79541,-0.22021;
18:42:23.163,0.13135,0.67749,-0.41260;
18:42:23.173,0.11108,0.57764,-0.49878;
18:42:23.183,0.07739,0.50146,-0.56763;
18:42:23.193,0.07983,0.42212,-0.60400;
18:42:23.203,0.09912,0.34644,-0.64722;
18:42:23.213,0.08008,0.32520,-0.70239;
18:42:23.223,0.06396,0.30103,-0.71191;
18:42:23.233,0.07227,0.29736,-0.72046;
18:42:23.243,0.05420,0.28149,-0.73828;
18:42:23.253,0.03052,0.30347,-0.74512;
18:42:23.263,0.03271,0.32617,-0.73755;
18:42:23.273,0.02148,0.32544,-0.71118;
18:42:23.283,0.02075,0.30029,-0.69360;
18:42:23.293,0.02661,0.25488,-0.71313;
18:42:23.303,0.01001,0.21777,-0.72876;
18:42:23.313,-0.00049,0.20850,-0.75366;
18:42:23.323,0.00122,0.22412,-0.78442;
18:42:23.333,0.01440,0.24683,-0.80420;
18:42:23.343,0.03491,0.26733,-0.83350;
18:42:23.353,0.05884,0.30298,-0.86475;
18:42:23.363,0.08252,0.35791,-0.90942;
18:42:23.373,0.10034,0.36353,-0.92480;
18:42:23.383,0.11841,0.32886,-0.92749;
18:42:23.393,0.11914,0.29150,-0.92993;
18:42:23.403,0.12598,0.25586,-0.92676;
18:42:23.413,0.14990,0.23608,-0.94214;
18:42:23.423,0.17114,0.26660,-1.00415;
18:42:23.433,0.12646,0.10474,-0.97974;
18:42:23.443,0.23315,0.22729,-0.96240;
18:42:23.453,0.16577,0.07764,-0.93091;
18:42:23.463,0.13428,0.23242,-0.95288;
18:42:23.473,0.18091,0.33496,-0.94629;
18:42:23.483,-0.17188,0.02710,-0.90771;
18:42:23.493,-0.27539,0.07935,-0.93262;
18:42:23.503,0.08545,0.20093,-0.92822;
18:42:23.513,-0.03296,0.19995,-0.95166;
18:42:23.523,-0.09326,0.12769,-1.01147;
18:42:23.533,0.05615,0.14160,-1.01611;
18:42:23.543,0.09180,0.14087,-1.02100;
18:42:23.553,-0.10693,0.07837,-1.04077;
18:42:23.563,-0.11230,0.08057,-1.02368;
18:42:23.573,-0.07275,0.08862,-0.99951;
18:42:23.583,-0.06299,0.11694,-1.00146;
18:42:23.593,-0.05615,0.15356,-0.98755;
18:42:23.603,-0.07397,0.15625,-0.99072;
18:42:23.613,-0.08765,0.11499,-0.99609;
18:42:23.623,-0.13086,0.07202,-1.00806;
18:42:23.633,-0.11523,0.12817,-1.02295;
18:42:23.643,-0.02051,-0.02026,-0.99707;
18:42:23.653,-0.08984,0.04175,-0.99365;
18:42:23.663,-0.17871,0.00366,-0.97119;
18:42:23.673,-0.28833,-0.04297,-0.94995;
18:42:23.683,-0.16748,0.01270,-0.92969;
18:42:23.693,-0.48657,-0.38550,-1.00708;
18:42:23.703,0.15698,0.23584,-1.03491;
18:42:23.713,-0.13452,0.09595,-1.03394;
18:42:23.723,-0.21069,-0.09619,-1.04541;
18:42:23.733,-0.01294,-0.08716,-1.01904;
18:42:23.743,0.10352,0.10449,-1.01440;
18:42:23.753,0.07129,0.16089,-1.02417;
18:42:23.763,-0.02222,0.15015,-1.06396;
18:42:23.773,0.01294,0.11475,-1.06958;
18:42:23.783,0.02393,0.10425,-1.08423;
18:42:23.793,0.02734,0.08350,-1.08813;
18:42:23.803,0.02222,0.03882,-1.08618;
18:42:23.813,-0.01440,0.01392,-1.08496;
18:42:23.823,-0.02710,0.02002,-1.08228;
18:42:23.833,-0.05176,0.02710,-1.06274;
18:42:23.843,-0.07227,0.03442,-1.04858;
18:42:23.853,-0.07764,0.03369,-1.02832;
18:42:23.863,-0.10107,0.04517,-1.02173;
18:42:23.873,-0.11108,0.06396,-1.00781;
18:42:23.883,-0.09717,0.04102,-1.01831;
18:42:23.893,-0.07886,0.04956,-1.05469;
18:42:23.903,-0.04639,0.13184,-1.06934;
18:42:23.913,-0.05640,0.07983,-1.04248;
18:42:23.923,-0.04736,0.00122,-1.03247;
18:42:23.933,-0.00977,-0.05737,-0.99048;
18:42:23.943,-0.07446,-0.09326,-1.00122;
18:42:23.953,-0.11255,-0.06030,-1.02173;
18:42:23.963,-0.04272,-0.06763,-0.99756;
18:42:23.973,-0.00610,-0.10596,-0.98022;
18:42:23.983,-0.02393,-0.10327,-0.96826;
18:42:23.993,-0.04712,-0.06738,-0.95947;
18:42:24.003,-0.06836,-0.05249,-0.94507;
18:42:24.013,-0.09961,-0.04688,-0.94629;
18:42:24.023,-0.11108,-0.00928,-0.96167;
18:42:24.033,-0.09937,0.00293,-0.97729;
18:42:24.043,-0.06885,0.01343,-0.98462;
18:42:24.053,-0.04785,0.00269,-0.98535;
18:42:24.063,-0.05371,-0.04272,-0.98730;
18:42:24.073,-0.06982,-0.05981,-0.98682;
18:42:24.083,-0.11523,-0.05127,-0.98853;
18:42:24.093,-0.13818,-0.00781,-0.97852;
18:42:24.103,-0.08936,-0.04712,-0.95972;
18:42:24.113,-0.09180,-0.06494,-0.95288;
18:42:24.123,-0.11792,-0.04565,-0.95166;
18:42:24.133,-0.11499,-0.04761,-0.96313;
18:42:24.143,-0.12500,-0.02734,-0.96704;
18:42:24.153,-0.12524,-0.00586,-0.97070;
18:42:24.163,-0.13696,-0.00146,-0.98633;
18:42:24.173,-0.13013,-0.01685,-0.99829;
18:42:24.183,-0.12231,-0.00024,-1.02051;
18:42:24.193,-0.13208,0.01074,-1.01538;
18:42:24.203,-0.13306,-0.00342,-1.00171;
18:42:24.213,-0.14111,0.01270,-1.00610;
18:42:24.223,-0.14673,0.01245,-1.00781;
18:42:24.233,-0.13525,-0.00122,-1.00171;
18:42:24.243,-0.13232,-0.01147,-1.00244;
18:42:24.253,-0.12891,-0.00488,-0.99097;
18:42:24.263,-0.14282,0.01147,-0.98315;
18:42:24.273,-0.13477,0.04321,-0.98071;
18:42:24.283,-0.13818,0.06860,-0.97729;
18:42:24.293,-0.15356,0.09937,-0.97632;
18:42:24.303,-0.15698,0.08545,-0.97852;
18:42:24.313,-0.16528,0.07617,-0.98755;
18:42:24.323,-0.16772,0.07837,-0.99536;
18:42:24.333,-0.17529,0.06592,-0.99414;
18:42:24.343,-0.18286,0.07129,-0.98999;
18:42:24.353,-0.17554,0.07568,-0.98462;
18:42:24.363,-0.17358,0.10547,-0.97998;
18:42:24.373,-0.18262,0.09888,-0.97314;
18:42:24.383,-0.16479,0.05151,-0.96777;
18:42:24.393,-0.13379,0.03613,-0.97070;
18:42:24.403,-0.12915,0.02808,-0.97681;
18:42:24.413,-0.14111,-0.01709,-0.98511;
18:42:24.423,-0.10645,-0.05298,-0.98877;
18:42:24.433,-0.07666,-0.07617,-0.99731;
18:42:24.443,-0.04712,-0.10498,-1.00195;
18:42:24.453,-0.03345,-0.14087,-1.00830;
18:42:24.463,-0.02930,-0.16748,-1.00635;
18:42:24.473,-0.06396,-0.12964,-1.00610;
18:42:24.483,-0.06372,-0.10620,-0.99902;
18:42:24.493,-0.06836,-0.10034,-1.00366;
18:42:24.503,-0.06616,-0.08862,-0.99487;
18:42:24.513,-0.06763,-0.08789,-0.99365;
18:42:24.523,-0.09351,-0.05786,-1.00366;
18:42:24.533,-0.09302,-0.17163,-0.98926;
18:42:24.543,-0.05591,-0.22095,-0.97314;
18:42:24.553,-0.00562,-0.09692,-0.97534;
18:42:24.563,-0.02661,-0.08374,-0.96606;
18:42:24.573,-0.10669,-0.09790,-0.94971;
18:42:24.583,-0.14453,-0.11011,-0.93481;
18:42:24.593,-0.16992,-0.14795,-0.92480;
18:42:24.603,-0.19263,-0.17041,-0.94946;
18:42:24.613,-0.11938,-0.03003,-0.98096;
18:42:24.623,-0.09399,0.07495,-1.00854;
18:42:24.633,-0.10840,0.11157,-1.04834;
18:42:24.643,-0.09766,0.16040,-1.06885;
18:42:24.653,-0.12158,0.15601,-1.08057;
18:42:24.663,-0.13770,0.14551,-1.07788;
18:42:24.673,-0.15479,0.11548,-1.06763;
18:42:24.683,-0.14502,0.10010,-1.05811;
18:42:24.693,-0.11108,0.10010,-1.03369;
18:42:24.703,-0.11035,0.07422,-1.03076;
18:42:24.713,-0.14233,0.07861,-1.04712;
18:42:24.723,-0.15747,0.11670,-1.05273;
18:42:24.733,-0.17261,0.11865,-1.06665;
18:42:24.743,-0.11572,0.15356,-1.06543;
18:42:24.753,-0.10645,0.14917,-1.05884;
18:42:24.763,-0.15234,0.09424,-1.02319;
18:42:24.773,-0.13086,0.09229,-1.01196;
18:42:24.783,-0.10156,0.07520,-1.00635;
18:42:24.793,-0.08472,0.02393,-1.00928;
18:42:24.803,-0.08789,-0.00830,-0.99756;
18:42:24.813,-0.10254,-0.04248,-0.99121;
18:42:24.823,-0.10107,-0.03662,-0.98291;
18:42:24.833,-0.09106,-0.00732,-0.98438;
18:42:24.843,-0.13623,-0.00928,-0.99951;
18:42:24.853,-0.03198,0.00488,-0.96777;
18:42:24.863,-0.00757,0.02002,-0.98193;
18:42:24.873,-0.11987,0.00830,-1.01270;
18:42:24.883,-0.05469,0.05469,-0.98877;
18:42:24.893,-0.03979,0.06348,-0.98901;
18:42:24.903,-0.11963,0.00244,-1.00073;
18:42:24.913,-0.05688,-0.01514,-0.98804;
18:42:24.923,-0.06909,-0.06616,-0.98608;
18:42:24.933,-0.07544,-0.11157,-0.98120;
18:42:24.943,-0.04565,-0.11060,-0.97803;
18:42:24.953,-0.10327,-0.15161,-0.96899;
18:42:24.963,-0.04517,-0.13135,-0.94214;
18:42:24.973,-0.04712,0.00952,-0.93994;
18:42:24.983,-0.05249,-0.02979,-0.93579;
18:42:24.993,-0.07959,-0.12378,-0.93530;
18:42:25.003,-0.08350,-0.03516,-0.93896;
18:42:25.013,-0.04102,0.01416,-0.96313;
18:42:25.023,-0.07397,-0.02661,-0.98047;
18:42:25.033,-0.09204,-0.01123,-0.99976;
18:42:25.043,-0.07617,0.01758,-1.00684;
18:42:25.053,-0.05981,-0.08423,-1.01465;
18:42:25.063,-0.02710,-0.15479,-1.00342;
18:42:25.073,-0.02661,-0.13281,-1.00439;
18:42:25.083,0.00195,-0.11157,-0.99048;
18:42:25.093,0.05005,-0.04517,-0.98730;
18:42:25.103,-0.07275,0.06201,-1.01855;
18:42:25.113,-0.13013,0.07373,-1.04102;
18:42:25.123,-0.08008,0.02344,-1.05371;
18:42:25.133,-0.06567,-0.04492,-1.06128;
18:42:25.143,-0.07593,-0.08008,-1.06421;
18:42:25.153,-0.09253,-0.08130,-1.05029;
18:42:25.163,-0.05884,-0.05396,-1.02612;
18:42:25.173,-0.09009,-0.02368,-1.01489;
18:42:25.183,-0.09937,0.00732,-1.01367;
18:42:25.193,-0.07300,0.01147,-0.99976;
18:42:25.203,-0.07104,-0.00415,-0.99170;
18:42:25.213,-0.10498,-0.00952,-1.01270;
18:42:25.223,-0.08203,0.00684,-1.00659;
18:42:25.233,-0.08423,0.00562,-1.00513;
18:42:25.243,-0.11304,-0.02686,-1.01367;
18:42:25.253,-0.07202,-0.00488,-1.00903;
18:42:25.263,-0.07446,0.00220,-1.00830;
18:42:25.273,-0.06152,0.00854,-1.00269;
18:42:25.283,-0.06885,0.01611,-1.00879;
18:42:25.293,-0.07446,0.01489,-1.01318;
18:42:25.303,-0.06372,-0.00049,-1.00635;
18:42:25.313,-0.04028,0.02466,-0.99976;
18:42:25.323,-0.06079,0.03149,-0.99609;
18:42:25.333,-0.07690,0.02026,-0.97705;
18:42:25.343,-0.05884,0.02271,-0.99146;
18:42:25.353,-0.04907,0.02881,-1.00977;
18:42:25.363,-0.03564,0.03198,-1.00537;
18:42:25.373,-0.02490,0.05054,-1.00830;
18:42:25.383,-0.03467,0.06177,-1.01611;
18:42:25.393,-0.02759,0.08398,-1.00708;
18:42:25.403,-0.02368,0.07178,-1.00098;
18:42:25.413,-0.01807,0.06079,-0.99731;
18:42:25.423,-0.00464,0.05713,-0.99561;
18:42:25.433,-0.00366,0.04834,-0.99536;
18:42:25.443,0.00488,0.03149,-0.99927;
18:42:25.453,0.01099,0.03491,-1.00757;
18:42:25.463,0.00513,0.04736,-1.00049;
18:42:25.473,0.00562,0.05542,-1.00366;
18:42:25.483,0.00684,0.05664,-1.00830;
18:42:25.493,0.00757,0.06421,-1.00537;
18:42:25.503,0.00269,0.06201,-1.01074;
18:42:25.513,0.00903,0.05347,-1.01392;
18:42:25.523,0.02466,0.04614,-1.01294;
18:42:25.533,0.03540,0.04077,-1.01709;
18:42:25.543,0.04102,0.03589,-1.01855;
18:42:25.553,0.04175,0.03394,-1.02393;
18:42:25.563,0.04858,0.03833,-1.03076;
18:42:25.573,0.05933,0.03906,-1.02588;
18:42:25.583,0.06250,0.04199,-1.02075;
18:42:25.593,0.06152,0.04565,-1.02588;
18:42:25.603,0.06201,0.05176,-1.02612;
18:42:25.613,0.06714,0.05493,-1.02612;
18:42:25.623,0.06982,0.05225,-1.02686;
18:42:25.633,0.08057,0.04370,-1.02173;
18:42:25.643,0.08398,0.03516,-1.02075;
18:42:25.653,0.08350,0.02563,-1.01440;
18:42:25.663,0.08984,0.02930,-1.00635;
18:42:25.673,0.08984,0.03125,-1.00562;
18:42:25.683,0.09302,0.03662,-1.00317;
18:42:25.693,0.10278,0.04126,-1.01099;
18:42:25.703,0.10791,0.04346,-1.00830;
18:42:25.713,0.09619,0.04077,-1.00659;
18:42:25.723,0.08325,0.04199,-1.01025;
18:42:25.733,0.08081,0.04297,-1.00537;
18:42:25.743,0.07935,0.04248,-1.00488;
18:42:25.753,0.08472,0.04736,-0.99487;
18:42:25.763,0.08716,0.04517,-0.99292;
18:42:25.773,0.08887,0.04785,-1.00269;
18:42:25.783,0.09961,0.05103,-1.01001;
18:42:25.793,0.10669,0.04272,-1.02173;
18:42:25.803,0.11621,0.03369,-1.03516;
18:42:25.813,0.11694,0.03247,-1.03638;
18:42:25.823,0.10742,0.03125,-1.02856;
18:42:25.833,0.09814,0.03467,-1.02124;
18:42:25.843,0.08472,0.04395,-1.01001;
18:42:25.853,0.07666,0.05396,-1.00122;
18:42:25.863,0.07373,0.05811,-1.00122;
18:42:25.873,0.07495,0.05591,-0.99731;
18:42:25.883,0.07520,0.04663,-0.99390;
18:42:25.893,0.07837,0.03564,-0.98975;
18:42:25.903,0.07568,0.01807,-0.99316;
18:42:25.913,0.06616,-0.00464,-0.98486;
18:42:25.923,0.06079,0.00488,-0.98779;
18:42:25.933,0.06030,0.01367,-0.98657;
18:42:25.943,0.05933,0.02344,-0.97705;
18:42:25.953,0.05859,0.02295,-0.97119;
18:42:25.963,0.05249,0.01904,-0.96826;
18:42:25.973,0.05005,0.01147,-0.96362;
18:42:25.983,0.05371,0.00195,-0.96338;
18:42:25.993,0.05786,-0.00684,-0.96558;
18:42:26.003,0.05933,-0.00317,-0.96729;
18:42:26.013,0.06079,0.00439,-0.97168;
18:42:26.023,0.05981,0.00537,-0.97437;
18:42:26.033,0.05908,0.01367,-0.97192;
18:42:26.043,0.05762,0.01709,-0.96484;
18:42:26.053,0.05957,0.01123,-0.95825;
18:42:26.063,0.06152,0.00781,-0.95605;
18:42:26.073,0.06494,0.00977,-0.94897;
18:42:26.083,0.07129,0.01538,-0.94434;
18:42:26.093,0.07495,0.01416,-0.94189;
18:42:26.103,0.05200,0.00806,-0.92700;
18:42:26.113,0.06543,-0.00610,-0.89185;
18:42:26.123,0.12915,0.00488,-0.85498;
18:42:26.133,0.11328,-0.02173,-0.82275;
18:42:26.143,0.11475,-0.07104,-0.77100;
18:42:26.153,0.14258,-0.09644,-0.72974;
18:42:26.163,0.09375,-0.13306,-0.69702;
18:42:26.173,0.06445,-0.15576,-0.66870;
18:42:26.183,0.06714,-0.13208,-0.65527;
18:42:26.193,0.04395,-0.10571,-0.66528;
18:42:26.203,0.09497,-0.07788,-0.70337;
18:42:26.213,0.12793,-0.04590,-0.77515;
18:42:26.223,0.15601,0.02393,-0.80591;
18:42:26.233,0.15918,0.05200,-0.84790;
18:42:26.243,0.17407,0.09888,-0.89746;
18:42:26.253,0.21069,0.18237,-0.94312;
18:42:26.263,0.23560,0.21997,-0.97998;
18:42:26.273,0.23926,0.20850,-1.00122;
18:42:26.283,0.26294,0.18530,-0.99951;
18:42:26.293,0.28296,0.15283,-1.00342;
18:42:26.303,0.31860,0.13989,-1.00464;
18:42:26.313,0.34741,0.14307,-0.99951;
18:42:26.323,0.39380,0.27979,-1.00659;
18:42:26.333,0.37622,0.25122,-1.02637;
18:42:26.343,0.39917,0.31274,-1.05005;
18:42:26.353,0.43848,0.34644,-1.05273;
18:42:26.363,0.42554,0.32642,-1.05762;
18:42:26.373,0.41626,0.31592,-1.04736;
18:42:26.383,0.48584,0.20776,-1.01831;
18:42:26.393,0.51440,0.11719,-1.01660;
18:42:26.403,0.47827,0.28101,-1.03784;
18:42:26.413,0.46606,0.41309,-1.04810;
18:42:26.423,0.47949,0.37598,-1.02979;
18:42:26.433,0.49072,0.33569,-1.00757;
18:42:26.443,0.49023,0.31787,-0.99561;
18:42:26.453,0.48706,0.31982,-0.97021;
18:42:26.463,0.46265,0.25464,-0.92725;
18:42:26.473,0.48633,0.25708,-0.94629;
18:42:26.483,0.52832,0.26025,-0.96216;
18:42:26.493,0.54907,0.25171,-0.97192;
18:42:26.503,0.53784,0.22559,-0.96436;
18:42:26.513,0.56055,0.23706,-0.94312;
18:42:26.523,0.53809,0.23901,-0.91748;
18:42:26.533,0.54468,0.21777,-0.88647;
18:42:26.543,0.55981,0.16553,-0.82739;
18:42:26.553,0.52563,0.14600,-0.79834;
18:42:26.563,0.56445,0.17798,-0.77271;
18:42:26.573,0.52441,0.19507,-0.76660;
18:42:26.583,0.47192,0.22241,-0.77490;
18:42:26.593,0.40601,0.18506,-0.74829;
18:42:26.603,0.36792,0.22363,-0.79663;
18:42:26.613,0.52319,0.30884,-0.75562;
18:42:26.623,0.49829,0.21997,-0.76538;
18:42:26.633,0.77295,0.25903,-0.81763;
18:42:26.643,0.57520,0.36621,-0.78076;
18:42:26.653,0.48633,0.35669,-0.74658;
18:42:26.663,0.71582,0.16406,-0.72949;
18:42:26.673,0.97705,-0.24951,-0.64600;
18:42:26.683,0.61816,0.23120,-0.65869;
18:42:26.693,0.65820,0.44434,-0.66455;
18:42:26.703,0.63867,0.46094,-0.65625;
18:42:26.713,0.77222,0.38550,-0.53735;
18:42:26.723,0.80615,0.50684,-0.52979;
18:42:26.733,0.83740,0.68066,-0.48804;
18:42:26.743,0.81958,0.70801,-0.47632;
18:42:26.753,0.78979,0.72778,-0.47046;
18:42:26.763,0.76563,0.74292,-0.45605;
18:42:26.773,0.77075,0.77539,-0.43384;
18:42:26.783,0.76953,0.81543,-0.39111;
18:42:26.793,0.75806,0.82813,-0.34961;
18:42:26.803,0.75317,0.85596,-0.31519;
18:42:26.813,0.78662,0.89893,-0.31128;
18:42:26.823,0.83496,0.92993,-0.32544;
18:42:26.833,0.80737,0.92969,-0.32739;
18:42:26.843,0.75342,0.94482,-0.30347;
18:42:26.853,0.77588,0.97070,-0.22998;
18:42:26.863,0.80176,0.90405,-0.15088;
18:42:26.873,0.77954,0.79028,-0.14331;
18:42:26.883,0.77002,0.80518,-0.13794;
18:42:26.893,0.79541,0.87524,-0.12378;
18:42:26.903,0.84253,0.84985,-0.09717;
18:42:26.913,0.83594,0.77026,-0.05762;
18:42:26.923,0.79761,0.67334,-0.09937;
18:42:26.933,0.81543,0.63672,-0.17627;
18:42:26.943,0.84692,0.74292,-0.19604;
18:42:26.953,0.86377,0.93188,-0.20508;
18:42:26.963,0.86426,1.18701,-0.25317;
18:42:26.973,0.77515,1.50903,-0.26953;
18:42:26.983,0.80664,0.91455,0.00171;
18:42:26.993,0.85278,0.58862,0.13257;
18:42:27.003,0.87183,0.45117,0.16333;
18:42:27.013,0.85840,0.48389,0.16577;
18:42:27.023,0.85547,0.57935,0.17090;
18:42:27.033,0.81470,0.69336,0.15210;
18:42:27.043,0.79736,0.80322,0.09204;
18:42:27.053,0.77368,0.87646,0.01685;
18:42:27.063,0.77075,0.76904,0.00952;
18:42:27.073,0.81421,0.56543,0.08960;
18:42:27.083,0.82178,0.49072,0.20068;
18:42:27.093,0.81030,0.51025,0.30322;
18:42:27.103,0.77759,0.55225,0.37646;
18:42:27.113,0.75000,0.56567,0.41748;
18:42:27.123,0.70728,0.54248,0.44751;
18:42:27.133,0.66553,0.58252,0.49780;
18:42:27.143,0.65430,0.65381,0.46509;
18:42:27.153,0.64575,0.69604,0.42651;
18:42:27.163,0.64600,0.70264,0.40015;
18:42:27.173,0.63770,0.68579,0.37646;
18:42:27.183,0.60229,0.65405,0.40576;
18:42:27.193,0.55322,0.63330,0.44312;
18:42:27.203,0.50269,0.62988,0.47729;
18:42:27.213,0.50049,0.71338,0.45190;
18:42:27.223,0.50269,0.79614,0.42334;
18:42:27.233,0.48633,0.86841,0.41772;
18:42:27.243,0.62695,0.46411,0.29517;
18:42:27.253,0.68457,0.45728,0.34961;
18:42:27.263,0.69360,0.45972,0.33862;
18:42:27.273,0.69824,0.47876,0.31763;
18:42:27.283,0.71143,0.53491,0.33301;
18:42:27.293,0.74829,0.61108,0.36646;
18:42:27.303,0.76636,0.67749,0.37769;
18:42:27.313,0.79639,0.28784,0.47925;
18:42:27.323,0.75293,0.45996,0.43115;
18:42:27.333,0.69824,0.78857,0.36890;
18:42:27.343,0.70654,0.92871,0.31592;
18:42:27.353,0.73315,0.91748,0.38306;
18:42:27.363,0.75830,0.87451,0.41357;
18:42:27.373,0.78198,0.79517,0.36646;
18:42:27.383,0.78564,0.73511,0.45801;
18:42:27.393,0.80469,0.54492,0.54590;
18:42:27.403,0.82935,0.40552,0.50732;
18:42:27.413,0.84644,0.43799,0.38403;
18:42:27.423,0.86206,0.48511,0.29272;
18:42:27.433,0.87720,0.51465,0.25244;
18:42:27.443,0.85815,0.54370,0.21460;
18:42:27.453,0.83447,0.52515,0.16455;
18:42:27.463,0.78809,0.56543,0.19775;
18:42:27.473,0.78418,0.56128,0.21436;
18:42:27.483,0.73633,0.55396,0.49121;
18:42:27.493,0.69385,0.58447,0.53296;
18:42:27.503,0.63525,0.59546,0.55005;
18:42:27.513,0.62549,0.59644,0.58228;
18:42:27.523,0.62158,0.62476,0.58325;
18:42:27.533,0.61084,0.56543,0.56543;
18:42:27.543,0.66064,0.40820,0.52173;
18:42:27.553,0.68530,0.35571,0.43188;
18:42:27.563,0.66577,0.42603,0.33618;
18:42:27.573,0.68164,0.55493,0.30469;
18:42:27.583,0.73950,0.61157,0.32056;
18:42:27.593,0.78564,0.57568,0.35498;
18:42:27.603,0.81104,0.52515,0.36572;
18:42:27.613,0.80640,0.48511,0.35718;
18:42:27.623,0.78174,0.44116,0.36279;
18:42:27.633,0.77148,0.43921,0.39502;
18:42:27.643,0.77686,0.45239,0.48535;
18:42:27.653,0.78638,0.45679,0.61182;
18:42:27.663,0.76367,0.52368,0.67383;
18:42:27.673,0.77051,0.50806,0.69629;
18:42:27.683,0.77759,0.37915,0.69165;
18:42:27.693,0.76416,0.28491,0.73218;
18:42:27.703,0.72388,0.34741,0.75391;
18:42:27.713,0.71338,0.47827,0.73291;
18:42:27.723,0.64136,0.52979,0.60425;
18:42:27.733,0.57642,0.46631,0.53491;
18:42:27.743,0.55103,0.44995,0.55005;
18:42:27.753,0.52271,0.51611,0.57495;
18:42:27.763,0.55103,0.59937,0.57178;
18:42:27.773,0.60742,0.59717,0.58350;
18:42:27.783,0.64038,0.54736,0.63159;
18:42:27.793,0.66064,0.49268,0.66016;
18:42:27.803,0.67383,0.40918,0.66382;
18:42:27.813,0.68237,0.38037,0.67041;
18:42:27.823,0.70972,0.43042,0.68994;
18:42:27.833,0.86841,0.36304,0.28809;
18:42:27.843,0.91992,0.16870,0.17139;
18:42:27.853,0.97974,-0.03687,0.04028;
18:42:27.863,1.06812,-0.25879,-0.08081;
18:42:27.873,1.14600,-0.46997,-0.04492;
18:42:27.883,1.23071,-0.53271,0.09106;
18:42:27.893,1.34253,-0.51196,0.12305;
18:42:27.903,1.44238,-0.41650,0.13062;
18:42:27.913,1.51709,-0.17676,0.15674;
18:42:27.923,1.60181,0.11328,0.21069;
18:42:27.933,1.67114,0.32813,0.25830;
18:42:27.943,1.68970,0.39478,0.38818;
18:42:27.953,1.64355,0.25122,0.56982;
18:42:27.963,1.53442,-0.04639,0.70532;
18:42:27.973,1.39307,-0.22412,0.82373;
18:42:27.983,1.21338,-0.05249,0.94019;
18:42:27.993,1.14087,-0.29688,1.15820;
18:42:28.003,1.08447,-0.25342,1.04346;
18:42:28.013,1.07007,-0.07373,0.91895;
18:42:28.023,1.08276,0.01978,0.75073;
18:42:28.033,0.98267,0.15674,0.49243;
18:42:28.043,0.85791,0.16724,0.42139;
18:42:28.053,0.74536,0.06372,0.37598;
18:42:28.063,0.64526,0.12109,0.35083;
18:42:28.073,0.58594,0.27295,0.46289;
18:42:28.083,0.48193,0.48193,0.57275;
18:42:28.093,0.50513,0.42188,0.23877;
18:42:28.103,0.46924,0.73975,0.23145;
18:42:28.113,0.35034,0.58130,0.05688;
18:42:28.123,0.29346,0.73706,-0.03516;
18:42:28.133,0.19849,1.15723,0.05347;
18:42:28.143,0.43188,1.36011,0.36377;
18:42:28.153,0.52783,1.48999,0.34937;
18:42:28.163,0.57568,1.49561,0.25220;
18:42:28.173,0.61841,1.38477,0.24170;
18:42:28.183,0.71313,1.17578,0.19775;
18:42:28.193,0.90308,1.02563,0.17944;
18:42:28.203,1.07422,0.83350,0.22437;
18:42:28.213,1.26074,0.73364,0.35962;
18:42:28.223,1.47021,0.51367,0.35522;
18:42:28.233,1.63062,0.23462,0.41650;
18:42:28.243,1.70703,0.09570,0.55957;
18:42:28.253,1.36816,0.24707,0.88232;
18:42:28.263,1.40234,0.18164,0.96045;
18:42:28.273,1.57690,0.13110,0.81104;
18:42:28.283,1.73438,0.16357,0.52832;
18:42:28.293,1.69165,0.26001,0.26685;
18:42:28.303,1.59741,0.20508,0.12109;
18:42:28.313,1.53149,-0.00952,-0.04199;
18:42:28.323,1.44629,-0.24658,-0.19531;
18:42:28.333,1.36255,-0.47021,-0.20703;
18:42:28.343,1.28784,-0.56030,-0.07275;
18:42:28.353,1.19531,-0.42822,0.04590;
18:42:28.363,1.16187,-0.07349,0.10498;
18:42:28.373,1.21704,0.41577,0.15649;
18:42:28.383,1.26172,0.81616,0.16748;
18:42:28.393,1.27271,1.04297,0.14453;
18:42:28.403,1.24512,1.05249,0.14111;
18:42:28.413,1.14526,0.89087,0.14478;
18:42:28.423,1.04785,0.72827,0.12915;
18:42:28.433,1.01465,0.63208,0.12671;
18:42:28.443,1.02930,0.69971,0.05933;
18:42:28.453,0.98779,0.80249,-0.04688;
18:42:28.463,0.83740,0.76807,-0.09448;
18:42:28.473,0.71069,0.66602,-0.06592;
18:42:28.483,0.70166,0.64917,-0.00415;
18:42:28.493,0.72119,0.71460,-0.00366;
18:42:28.503,0.64941,0.68579,-0.05640;
18:42:28.513,0.53638,0.56421,-0.06226;
18:42:28.523,0.47290,0.48706,-0.01733;
18:42:28.533,0.44556,0.44287,0.11035;
18:42:28.543,0.43677,0.40112,0.32715;
18:42:28.553,0.35669,0.46924,0.45874;
18:42:28.563,0.35474,0.47949,0.47998;
18:42:28.573,0.37842,0.56763,0.43628;
18:42:28.583,0.43970,0.67358,0.32202;
18:42:28.593,0.42773,0.72705,0.23486;
18:42:28.603,0.35205,0.80981,0.16602;
18:42:28.613,0.36157,0.83130,0.07983;
18:42:28.623,0.41016,0.61670,0.09375;
18:42:28.633,0.46655,0.37402,0.20483;
18:42:28.643,0.52197,0.23999,0.29053;
18:42:28.653,0.56128,0.13379,0.35474;
18:42:28.663,0.57373,0.07813,0.44214;
18:42:28.673,0.55200,0.12817,0.50537;
18:42:28.683,0.51440,0.24829,0.58716;
18:42:28.693,0.48267,0.40283,0.60303;
18:42:28.703,0.45410,0.57959,0.54980;
18:42:28.713,0.42603,0.71826,0.48242;
18:42:28.723,0.38647,0.78467,0.44556;
18:42:28.733,0.35059,0.74683,0.47729;
18:42:28.743,0.37695,0.71021,0.57520;
18:42:28.753,0.42114,0.68896,0.63623;
18:42:28.763,0.44897,0.62329,0.54248;
18:42:28.773,0.44263,0.65845,0.41553;
18:42:28.783,0.44141,0.81470,0.20654;
18:42:28.793,0.45850,1.02124,0.03735;
18:42:28.803,0.38306,0.68994,0.17065;
18:42:28.813,0.36523,0.56396,0.23096;
18:42:28.823,0.27441,0.88379,0.28613;
18:42:28.833,0.29980,0.77246,0.35962;
18:42:28.843,0.41797,0.66504,0.32813;
18:42:28.853,0.41504,0.72241,0.19336;
18:42:28.863,0.37524,0.74048,0.12573;
18:42:28.873,0.48193,0.72339,0.15967;
18:42:28.883,0.63452,0.96582,0.12402;
18:42:28.893,0.75635,1.21143,0.01025;
18:42:28.903,0.88208,1.32227,0.00928;
18:42:28.913,1.00122,1.31396,0.05859;
18:42:28.923,1.07349,1.22314,0.06079;
18:42:28.933,1.03320,1.11426,0.12158;
18:42:28.943,1.06543,1.06982,0.15283;
18:42:28.953,1.05884,1.02856,0.14038;
18:42:28.963,1.10815,0.98438,0.16504;
18:42:28.973,1.11084,0.92090,0.15601;
18:42:28.983,1.06812,0.82178,0.10645;
18:42:28.993,1.09766,0.68872,0.04907;
18:42:29.003,1.05737,0.56226,0.00073;
18:42:29.013,0.98706,0.49902,-0.08374;
18:42:29.023,0.89478,0.49048,-0.12500;
18:42:29.033,0.82007,0.49487,-0.12207;
18:42:29.043,0.77466,0.52173,-0.10010;
18:42:29.053,0.74121,0.55249,-0.05835;
18:42:29.063,0.70361,0.57422,-0.02515;
18:42:29.073,0.66187,0.61475,0.01440;
18:42:29.083,0.60547,0.65527,0.07886;
18:42:29.093,0.51196,0.76733,0.12988;
18:42:29.103,0.51172,0.78394,0.16309;
18:42:29.113,0.50757,0.79102,0.18188;
18:42:29.123,0.51147,0.81787,0.20215;
18:42:29.133,0.52075,0.85889,0.21973;
18:42:29.143,0.53613,0.89258,0.22412;
18:42:29.153,0.56250,0.90503,0.21826;
18:42:29.163,0.63306,0.87378,0.13086;
18:42:29.173,0.63989,0.85669,0.09644;
18:42:29.183,0.64648,0.85474,0.05029;
18:42:29.193,0.65283,0.85767,0.00781;
18:42:29.203,0.65356,0.85181,-0.02173;
18:42:29.213,0.65576,0.83716,-0.05176;
18:42:29.223,0.65479,0.81177,-0.07324;
18:42:29.233,0.65430,0.78540,-0.08960;
18:42:29.243,0.65552,0.77271,-0.10474;
18:42:29.253,0.65283,0.76660,-0.11523;
18:42:29.263,0.64624,0.76343,-0.11938;
18:42:29.273,0.63843,0.76758,-0.12500;
18:42:29.283,0.63208,0.77612,-0.12476;
18:42:29.293,0.62671,0.79321,-0.12329;
18:42:29.303,0.62158,0.81323,-0.12329;
18:42:29.313,0.61377,0.82837,-0.12378;
18:42:29.323,0.61060,0.83667,-0.11646;
18:42:29.333,0.60986,0.84033,-0.10425;
18:42:29.343,0.60620,0.83740,-0.09058;
18:42:29.353,0.60352,0.83545,-0.06006;
18:42:29.363,0.60156,0.83179,-0.04346;
18:42:29.373,0.61719,0.81934,-0.03809;
18:42:29.383,0.62280,0.81543,-0.03223;
18:42:29.393,0.62646,0.81323,-0.02466;
18:42:29.403,0.62891,0.81079,-0.01636;
18:42:29.413,0.62842,0.80493,-0.01099;
18:42:29.423,0.62695,0.79785,-0.00464;
18:42:29.433,0.62549,0.79321,-0.00122;
18:42:29.443,0.62817,0.78711,0.00537;
18:42:29.453,0.62866,0.78540,0.00244;
18:42:29.463,0.62769,0.78882,-0.00098;
18:42:29.473,0.62891,0.79321,-0.00171;
18:42:29.483,0.62695,0.79761,-0.00562;
18:42:29.493,0.62305,0.80127,-0.00586;
18:42:29.503,0.61621,0.80518,-0.00952;
18:42:29.513,0.61572,0.81274,-0.01611;
18:42:29.523,0.61719,0.81641,-0.02026;
18:42:29.533,0.61255,0.81738,-0.02417;
18:42:29.543,0.60938,0.81860,-0.02710;
18:42:29.553,0.60864,0.81396,-0.02881;
18:42:29.563,0.60986,0.81250,-0.03418;
18:42:29.573,0.60815,0.81274,-0.03638;
18:42:29.583,0.60791,0.81128,-0.03833;
18:42:29.593,0.60938,0.81421,-0.04492;
18:42:29.603,0.61084,0.81860,-0.04883;
18:42:29.613,0.61841,0.81909,-0.05054;
18:42:29.623,0.62402,0.82031,-0.05029;
18:42:29.633,0.62598,0.81763,-0.04834;
18:42:29.643,0.62598,0.81104,-0.04590;
18:42:29.653,0.62524,0.80273,-0.03589;
18:42:29.663,0.62256,0.79688,-0.02905;
18:42:29.673,0.62378,0.79517,-0.03003;
18:42:29.683,0.62134,0.79785,-0.02808;
18:42:29.693,0.62280,0.80420,-0.02783;
18:42:29.703,0.62256,0.80566,-0.02832;
18:42:29.713,0.62207,0.80591,-0.02832;
18:42:29.723,0.62305,0.80542,-0.02393;
18:42:29.733,0.62012,0.80518,-0.02417;
18:42:29.743,0.61743,0.80469,-0.02246;
18:42:29.753,0.61816,0.80444,-0.01953;
18:42:29.763,0.62036,0.80469,-0.02295;
18:42:29.773,0.62231,0.80591,-0.02466;
18:42:29.783,0.62183,0.80664,-0.02588;
18:42:29.793,0.62012,0.80786,-0.03223;
18:42:29.803,0.61987,0.81006,-0.03540;
18:42:29.813,0.62061,0.81030,-0.03247;
18:42:29.823,0.62012,0.80933,-0.03418;
18:42:29.833,0.62183,0.80737,-0.03442;
18:42:29.843,0.62183,0.80762,-0.03564;
18:42:29.853,0.62085,0.80566,-0.03931;
18:42:29.863,0.62183,0.80469,-0.03931;
18:42:29.873,0.62573,0.80566,-0.03784;
18:42:29.883,0.62451,0.80469,-0.03394;
18:42:29.893,0.62231,0.80640,-0.03247;
18:42:29.903,0.62402,0.80420,-0.03418;
18:42:29.913,0.62305,0.80493,-0.03516;
18:42:29.923,0.62378,0.80371,-0.03516;
18:42:29.933,0.62549,0.79956,-0.03516;
18:42:29.943,0.62646,0.80542,-0.03442;
18:42:29.953,0.62695,0.80200,-0.03345;
18:42:29.963,0.62402,0.79834,-0.03467;
18:42:29.973,0.62500,0.79468,-0.03247;
18:42:29.983,0.62427,0.79517,-0.02954;
18:42:29.993,0.62354,0.79370,-0.02686;
18:42:30.003,0.62305,0.79492,-0.02783;
18:42:30.013,0.62183,0.79736,-0.02710;
18:42:30.023,0.62183,0.80371,-0.02832;
18:42:30.033,0.62231,0.80933,-0.03125;
18:42:30.043,0.62158,0.80615,-0.03003;
18:42:30.053,0.62012,0.80542,-0.03320;
18:42:30.063,0.62061,0.80420,-0.03345;
18:42:30.073,0.62500,0.80200,-0.03491;
18:42:30.083,0.63306,0.80322,-0.04199;
18:42:30.093,0.64136,0.80396,-0.04614;
18:42:30.103,0.64526,0.80444,-0.05029;
18:42:30.113,0.65112,0.80176,-0.05225;
18:42:30.123,0.65137,0.80103,-0.05273;
18:42:30.133,0.65039,0.79736,-0.05249;
18:42:30.143,0.65112,0.79150,-0.05396;
18:42:30.153,0.65308,0.79224,-0.05493;
18:42:30.163,0.65527,0.79150,-0.05664;
18:42:30.173,0.65454,0.79370,-0.05591;
18:42:30.183,0.65210,0.79321,-0.05591;
18:42:30.193,0.64746,0.78882,-0.06030;
18:42:30.203,0.64380,0.79346,-0.05469;
18:42:30.213,0.64185,0.79663,-0.05298;
18:42:30.223,0.63867,0.79541,-0.05200;
18:42:30.233,0.62842,0.78735,-0.03979;
18:42:30.243,0.61621,0.79614,-0.03882;
18:42:30.253,0.60840,0.80029,-0.03809;
18:42:30.263,0.60889,0.80225,-0.03491;
18:42:30.273,0.60815,0.80103,-0.03247;
18:42:30.283,0.60571,0.81152,-0.04053;
18:42:30.293,0.58716,0.80957,-0.03247;
18:42:30.303,0.57935,0.79736,-0.02441;
18:42:30.313,0.58569,0.80127,-0.02930;
18:42:30.323,0.58105,0.80664,-0.02930;
18:42:30.333,0.58105,0.80664,-0.02588;
18:42:30.343,0.57690,0.80908,-0.02490;
18:42:30.353,0.57764,0.81641,-0.03003;
18:42:30.363,0.58569,0.82495,-0.02881;
18:42:30.373,0.59521,0.83057,-0.02930;
18:42:30.383,0.60425,0.83130,-0.03296;
18:42:30.393,0.61157,0.82568,-0.03735;
18:42:30.403,0.61670,0.81763,-0.04053;
18:42:30.413,0.62305,0.81177,-0.04810;
18:42:30.423,0.62793,0.80908,-0.04810;
18:42:30.433,0.63428,0.80859,-0.04736;
18:42:30.443,0.63989,0.80225,-0.04517;
18:42:30.453,0.64185,0.79858,-0.04419;
18:42:30.463,0.64233,0.79663,-0.04443;
18:42:30.473,0.64355,0.79663,-0.04639;
18:42:30.483,0.64307,0.80103,-0.05176;
18:42:30.493,0.64185,0.80151,-0.05127;
18:42:30.503,0.64038,0.80127,-0.05444;
18:42:30.513,0.63623,0.80298,-0.05542;
18:42:30.523,0.62695,0.80322,-0.05396;
18:42:30.533,0.62549,0.80200,-0.05005;
18:42:30.543,0.62573,0.79932,-0.04834;
18:42:30.553,0.62817,0.79785,-0.04199;
18:42:30.563,0.62720,0.80054,-0.04297;
18:42:30.573,0.62500,0.79980,-0.04443;
18:42:30.583,0.63062,0.79932,-0.04639;
18:42:30.593,0.62915,0.79712,-0.04443;
18:42:30.603,0.63013,0.79663,-0.04297;
18:42:30.613,0.63306,0.79688,-0.04590;
18:42:30.623,0.63354,0.79761,-0.04370;
18:42:30.633,0.63525,0.79688,-0.04321;
18:42:30.643,0.63379,0.79663,-0.04272;
18:42:30.653,0.63281,0.79468,-0.04126;
18:42:30.663,0.63281,0.79468,-0.04224;
18:42:30.673,0.63281,0.79761,-0.04248;
18:42:30.683,0.63159,0.79614,-0.04224;
18:42:30.693,0.63159,0.79810,-0.04443;
18:42:30.703,0.62988,0.79907,-0.04419;
18:42:30.713,0.62817,0.79907,-0.04395;
18:42:30.723,0.63159,0.79883,-0.04321;
18:42:30.733,0.63281,0.79858,-0.03687;
18:42:30.743,0.63086,0.79443,-0.03955;
18:42:30.753,0.62329,0.78809,-0.04272;
18:42:30.763,0.62158,0.78662,-0.03882;
18:42:30.773,0.62598,0.78711,-0.03833;
18:42:30.783,0.62671,0.78955,-0.03735;
18:42:30.793,0.62671,0.79395,-0.03467;
18:42:30.803,0.62769,0.79907,-0.03711;
18:42:30.813,0.62866,0.81055,-0.04004;
18:42:30.823,0.62964,0.80933,-0.04492;
18:42:30.833,0.62891,0.80151,-0.04346;
18:42:30.843,0.62891,0.79834,-0.04639;
18:42:30.853,0.63184,0.79663,-0.05005;
18:42:30.863,0.63330,0.79517,-0.04810;
18:42:30.873,0.63306,0.79419,-0.04736;
18:42:30.883,0.63330,0.79199,-0.04517;
18:42:30.893,0.63257,0.79028,-0.04346;
18:42:30.903,0.63159,0.78955,-0.04224;
18:42:30.913,0.63135,0.79004,-0.03955;
18:42:30.923,0.63062,0.78931,-0.03516;
18:42:30.933,0.63135,0.79126,-0.03491;
18:42:30.943,0.63159,0.79419,-0.03613;
18:42:30.953,0.63184,0.79590,-0.03589;
18:42:30.963,0.63062,0.79736,-0.03564;
18:42:30.973,0.62695,0.79688,-0.03662;
18:42:30.983,0.62671,0.79785,-0.03906;
18:42:30.993,0.62500,0.80078,-0.04102;
18:42:31.003,0.62280,0.80249,-0.03979;
18:42:31.013,0.62427,0.80176,-0.04248;
18:42:31.023,0.62329,0.80347,-0.04248;
18:42:31.033,0.62524,0.80249,-0.03906;
18:42:31.043,0.62769,0.79932,-0.04028;
18:42:31.053,0.62793,0.79785,-0.03882;
18:42:31.063,0.62769,0.79541,-0.03638;
18:42:31.073,0.62671,0.79614,-0.04004;
18:42:31.083,0.62695,0.79761,-0.03906;
18:42:31.093,0.62891,0.80249,-0.03345;
18:42:31.103,0.62378,0.80127,-0.03491;
18:42:31.113,0.62207,0.80371,-0.03467;
18:42:31.123,0.62036,0.80493,-0.03516;
18:42:31.133,0.61987,0.80469,-0.03662;
18:42:31.143,0.61768,0.80640,-0.03296;
18:42:31.153,0.61743,0.80737,-0.02905;
18:42:31.163,0.61816,0.80835,-0.02661;
18:42:31.173,0.61768,0.80933,-0.02539;
18:42:31.183,0.61401,0.80884,-0.02441;
18:42:31.193,0.61084,0.81006,-0.02075;
18:42:31.203,0.61255,0.80908,-0.02393;
18:42:31.213,0.61279,0.81323,-0.02686;
18:42:31.223,0.61401,0.81665,-0.02197;
18:42:31.233,0.61426,0.81763,-0.02002;
18:42:31.243,0.61523,0.81689,-0.01929;
18:42:31.253,0.61694,0.81641,-0.01855;
18:42:31.263,0.61450,0.81372,-0.01831;
18:42:31.273,0.61157,0.81274,-0.01855;
18:42:31.283,0.60962,0.80908,-0.01831;
18:42:31.293,0.60840,0.80518,-0.01709;
18:42:31.303,0.60913,0.80347,-0.01855;
18:42:31.313,0.60986,0.80103,-0.01758;
18:42:31.323,0.61255,0.80420,-0.01978;
18:42:31.333,0.61279,0.80957,-0.01904;
18:42:31.343,0.61328,0.81299,-0.01660;
18:42:31.353,0.61597,0.81470,-0.01978;
18:42:31.363,0.61768,0.81567,-0.01855;
18:42:31.373,0.61987,0.81299,-0.01733;
18:42:31.383,0.62476,0.80371,-0.01660;
18:42:31.393,0.62695,0.80078,-0.01367;
18:42:31.403,0.62549,0.80298,-0.01709;
18:42:31.413,0.62549,0.80469,-0.01587;
18:42:31.423,0.62622,0.80542,-0.01636;
18:42:31.433,0.62598,0.80762,-0.01685;
18:42:31.443,0.62524,0.80981,-0.02051;
18:42:31.453,0.62402,0.80835,-0.02441;
18:42:31.463,0.62378,0.80298,-0.02173;
18:42:31.473,0.62378,0.80103,-0.01831;
18:42:31.483,0.62085,0.80005,-0.01807;
18:42:31.493,0.62158,0.80176,-0.02051;
18:42:31.503,0.62329,0.80176,-0.01782;
18:42:31.513,0.62183,0.80420,-0.00854;
18:42:31.523,0.62305,0.80835,-0.01123;
18:42:31.533,0.62549,0.80957,-0.01440;
18:42:31.543,0.62915,0.80981,-0.01733;
18:42:31.553,0.63135,0.80884,-0.01831;
18:42:31.563,0.63281,0.80566,-0.02075;
18:42:31.573,0.63892,0.80151,-0.02393;
18:42:31.583,0.64209,0.80029,-0.02563;
18:42:31.593,0.64502,0.79834,-0.02661;
18:42:31.603,0.65161,0.79590,-0.02759;
18:42:31.613,0.65405,0.78906,-0.02979;
18:42:31.623,0.65503,0.78174,-0.02881;
18:42:31.633,0.65527,0.77856,-0.02954;
18:42:31.643,0.65430,0.77563,-0.02759;
18:42:31.653,0.65259,0.77393,-0.02832;
18:42:31.663,0.65063,0.77393,-0.02881;
18:42:31.673,0.64941,0.77344,-0.02832;
18:42:31.683,0.64819,0.77856,-0.02783;
18:42:31.693,0.64795,0.78271,-0.02710;
18:42:31.703,0.64868,0.78369,-0.03174;
18:42:31.713,0.64941,0.78833,-0.03125;
18:42:31.723,0.65088,0.79028,-0.02832;
18:42:31.733,0.65161,0.79150,-0.02979;
18:42:31.743,0.65283,0.79150,-0.03076;
18:42:31.753,0.65112,0.78833,-0.03052;
18:42:31.763,0.65039,0.78516,-0.03442;
18:42:31.773,0.65161,0.78271,-0.03564;
18:42:31.783,0.65259,0.78247,-0.03320;
18:42:31.793,0.65234,0.78027,-0.03247;
18:42:31.803,0.65137,0.77979,-0.03394;
18:42:31.813,0.65234,0.78125,-0.03564;
18:42:31.823,0.65161,0.78467,-0.03760;
18:42:31.833,0.65405,0.78711,-0.03613;
18:42:31.843,0.65381,0.78882,-0.03613;
18:42:31.853,0.65381,0.78882,-0.03687;
18:42:31.863,0.65479,0.78784,-0.03760;
18:42:31.873,0.65405,0.78784,-0.03760;
18:42:31.883,0.65356,0.78516,-0.03491;
18:42:31.893,0.65356,0.78979,-0.03394;
18:42:31.903,0.65112,0.78906,-0.03735;
18:42:31.913,0.65063,0.78857,-0.03345;
18:42:31.923,0.64917,0.78809,-0.03687;
18:42:31.933,0.65088,0.78809,-0.03491;
18:42:31.943,0.65015,0.78662,-0.03223;
18:42:31.953,0.65015,0.78418,-0.03564;
18:42:31.963,0.64771,0.78418,-0.03711;
18:42:31.973,0.64600,0.78613,-0.03687;
18:42:31.983,0.64624,0.78442,-0.04175;
18:42:31.993,0.64502,0.78784,-0.04199;
18:42:32.003,0.64600,0.78833,-0.04248;
18:42:32.013,0.64551,0.78638,-0.04175;
18:42:32.023,0.64795,0.78857,-0.04370;
18:42:32.033,0.65112,0.78784,-0.04468;
18:42:32.043,0.65259,0.78638,-0.04028;
18:42:32.053,0.65381,0.78857,-0.04102;
18:42:32.063,0.65698,0.79102,-0.04297;
18:42:32.073,0.65991,0.78955,-0.04517;
18:42:32.083,0.66333,0.79053,-0.04834;
18:42:32.093,0.66675,0.79248,-0.04834;
18:42:32.103,0.66821,0.79175,-0.05005;
18:42:32.113,0.66870,0.78882,-0.05298;
18:42:32.123,0.66797,0.78418,-0.05566;
18:42:32.133,0.66870,0.78223,-0.05542;
18:42:32.143,0.67212,0.78076,-0.06079;
18:42:32.153,0.67456,0.77881,-0.06421;
18:42:32.163,0.67505,0.77881,-0.05933;
18:42:32.173,0.68311,0.77222,-0.05884;
18:42:32.183,0.69263,0.76367,-0.05859;
18:42:32.193,0.69287,0.75488,-0.06201;
18:42:32.203,0.69019,0.74854,-0.06738;
18:42:32.213,0.69092,0.74390,-0.07349;
18:42:32.223,0.70020,0.74536,-0.07495;
18:42:32.233,0.70972,0.74976,-0.07886;
18:42:32.243,0.72021,0.76343,-0.08276;
18:42:32.253,0.73291,0.77637,-0.08911;
18:42:32.263,0.73999,0.78247,-0.09619;
18:42:32.273,0.74731,0.79321,-0.10278;
18:42:32.283,0.74878,0.80518,-0.10767;
18:42:32.293,0.74536,0.81250,-0.11011;
18:42:32.303,0.73730,0.80884,-0.11646;
18:42:32.313,0.71997,0.80249,-0.11719;
18:42:32.323,0.69922,0.79834,-0.12231;
18:42:32.333,0.68384,0.79272,-0.13330;
18:42:32.343,0.66846,0.78687,-0.14063;
18:42:32.353,0.65210,0.78125,-0.14746;
18:42:32.363,0.64429,0.77441,-0.15015;
18:42:32.373,0.63843,0.77173,-0.15625;
18:42:32.383,0.62939,0.76978,-0.16089;
18:42:32.393,0.61841,0.76855,-0.16260;
18:42:32.403,0.61084,0.76685,-0.16553;
18:42:32.413,0.60278,0.76099,-0.17114;
18:42:32.423,0.59863,0.75610,-0.17578;
18:42:32.433,0.59839,0.75049,-0.17822;
18:42:32.443,0.59448,0.74414,-0.18555;
18:42:32.453,0.59082,0.74292,-0.18750;
18:42:32.463,0.58350,0.74585,-0.19312;
18:42:32.473,0.58618,0.76440,-0.18921;
18:42:32.483,0.59253,0.77319,-0.18604;
18:42:32.493,0.59253,0.77539,-0.18652;
18:42:32.503,0.58789,0.77808,-0.18774;
18:42:32.513,0.58472,0.78003,-0.18237;
18:42:32.523,0.58032,0.77905,-0.17896;
18:42:32.533,0.57764,0.77515,-0.18164;
18:42:32.543,0.57544,0.77148,-0.17798;
18:42:32.553,0.57422,0.76538,-0.17578;
18:42:32.563,0.57349,0.75439,-0.18066;
18:42:32.573,0.57568,0.73413,-0.17554;
18:42:32.583,0.57983,0.71704,-0.17261;
18:42:32.593,0.58057,0.70532,-0.17090;
18:42:32.603,0.58594,0.69580,-0.16748;
18:42:32.613,0.58984,0.69116,-0.16675;
18:42:32.623,0.59595,0.68823,-0.15967;
18:42:32.633,0.60132,0.69507,-0.15698;
18:42:32.643,0.60400,0.70337,-0.15649;
18:42:32.653,0.60718,0.70703,-0.15625;
18:42:32.663,0.61084,0.71118,-0.15503;
18:42:32.673,0.61890,0.71655,-0.15161;
18:42:32.683,0.62622,0.72607,-0.14917;
18:42:32.693,0.63306,0.73779,-0.14844;
18:42:32.703,0.63745,0.74854,-0.14990;
18:42:32.713,0.63916,0.75098,-0.14453;
18:42:32.723,0.63989,0.74805,-0.14038;
18:42:32.733,0.63281,0.74121,-0.13354;
18:42:32.743,0.62329,0.73096,-0.13013;
18:42:32.753,0.61572,0.72485,-0.12646;
18:42:32.763,0.61133,0.69751,-0.11694;
18:42:32.773,0.62695,0.70166,-0.10791;
18:42:32.783,0.63843,0.70605,-0.09546;
18:42:32.793,0.64746,0.71436,-0.07104;
18:42:32.803,0.65454,0.73022,-0.04346;
18:42:32.813,0.65845,0.75049,-0.01733;
18:42:32.823,0.67578,0.77026,0.00513;
18:42:32.833,0.70801,0.79150,0.02368;
18:42:32.843,0.73901,0.81177,0.03296;
18:42:32.853,0.77148,0.85596,0.05859;
18:42:32.863,0.77222,0.87769,0.05566;
18:42:32.873,0.76685,0.89233,0.04248;
18:42:32.883,0.75928,0.90454,0.02954;
18:42:32.893,0.74658,0.91553,0.02100;
18:42:32.903,0.72974,0.91699,0.02710;
18:42:32.913,0.71436,0.90869,0.04028;
18:42:32.923,0.68262,0.90649,0.04834;
18:42:32.933,0.63452,0.90967,0.04663;
18:42:32.943,0.59375,0.91138,0.03735;
18:42:32.953,0.55859,0.91040,0.02490;
18:42:32.963,0.52783,0.91504,0.01807;
18:42:32.973,0.51318,0.93799,0.02417;
18:42:32.983,0.51294,0.97778,0.04639;
18:42:32.993,0.51587,1.02686,0.09131;
18:42:33.003,0.51318,1.06567,0.13867;
18:42:33.013,0.50659,1.09497,0.18726;
18:42:33.023,0.49658,1.12061,0.22998;
18:42:33.033,0.45947,1.10278,0.23877;
18:42:33.043,0.42603,0.97485,0.11694;
18:42:33.053,0.41504,0.92505,0.08643;
18:42:33.063,0.42456,0.88477,0.06567;
18:42:33.073,0.44019,0.85889,0.05615;
18:42:33.083,0.45093,0.84521,0.05908;
18:42:33.093,0.45508,0.84692,0.05859;
18:42:33.103,0.46753,0.84277,0.05884;
18:42:33.113,0.48364,0.82837,0.06860;
18:42:33.123,0.50000,0.81079,0.06641;
18:42:33.133,0.51733,0.80200,0.06445;
18:42:33.143,0.54175,0.79932,0.05298;
18:42:33.153,0.55811,0.80078,0.03418;
18:42:33.163,0.56714,0.80615,0.01074;
18:42:33.173,0.57788,0.81372,-0.02075;
18:42:33.183,0.59644,0.82446,-0.05054;
18:42:33.193,0.61621,0.83154,-0.07935;
18:42:33.203,0.62378,0.83716,-0.10156;
18:42:33.213,0.62988,0.83643,-0.11597;
18:42:33.223,0.63330,0.83105,-0.12183;
18:42:33.233,0.62988,0.82739,-0.11279;
18:42:33.243,0.62769,0.81982,-0.09058;
18:42:33.253,0.62622,0.81958,-0.06689;
18:42:33.263,0.61890,0.82349,-0.04321;
18:42:33.273,0.59912,0.82422,-0.01929;
18:42:33.283,0.58179,0.82666,0.00293;
18:42:33.293,0.57520,0.83008,0.02515;
18:42:33.303,0.57080,0.83301,0.03809;
18:42:33.313,0.55981,0.83203,0.04517;
18:42:33.323,0.53979,0.79639,0.06396;
18:42:33.333,0.54639,0.77759,0.07886;
18:42:33.343,0.55078,0.76782,0.08228;
18:42:33.353,0.55811,0.75317,0.08667;
18:42:33.363,0.56177,0.73975,0.09375;
18:42:33.373,0.56763,0.72998,0.09912;
18:42:33.383,0.57056,0.72705,0.09668;
18:42:33.393,0.57666,0.72656,0.09692;
18:42:33.403,0.58740,0.72485,0.09473;
18:42:33.413,0.60229,0.72485,0.09033;
18:42:33.423,0.61499,0.71924,0.08154;
18:42:33.433,0.62988,0.71021,0.07129;
18:42:33.443,0.64233,0.69385,0.06543;
18:42:33.453,0.65381,0.67163,0.06177;
18:42:33.463,0.68774,0.65747,0.06201;
18:42:33.473,0.74854,0.67603,0.05542;
18:42:33.483,0.81641,0.71631,0.04419;
18:42:33.493,0.95020,0.83594,0.01172;
18:42:33.503,0.94727,0.86572,-0.01099;
18:42:33.513,0.91675,0.88428,-0.05298;
18:42:33.523,0.89209,0.89453,-0.09619;
18:42:33.533,0.86890,0.90283,-0.14502;
18:42:33.543,0.83447,0.91382,-0.20972;
18:42:33.553,0.79688,0.91284,-0.27637;
18:42:33.563,0.74805,0.91187,-0.35400;
18:42:33.573,0.69629,0.90894,-0.43530;
18:42:33.583,0.66211,0.90796,-0.49854;
18:42:33.593,0.62354,0.92212,-0.58618;
18:42:33.603,0.54443,1.05664,-0.57715;
18:42:33.613,0.55078,1.11304,-0.53809;
18:42:33.623,0.57837,1.15063,-0.48169;
18:42:33.633,0.59448,1.14917,-0.41406;
18:42:33.643,0.57764,1.09619,-0.35034;
18:42:33.653,0.56250,1.02026,-0.29761;
18:42:33.663,0.55347,0.94946,-0.25366;
18:42:33.673,0.53101,0.87402,-0.22363;
18:42:33.683,0.50342,0.78882,-0.20337;
18:42:33.693,0.47437,0.72046,-0.19336;
18:42:33.703,0.45044,0.66455,-0.18066;
18:42:33.713,0.43066,0.62012,-0.17261;
18:42:33.723,0.41895,0.58545,-0.16992;
18:42:33.733,0.41650,0.55762,-0.16333;
18:42:33.743,0.42114,0.54053,-0.15991;
18:42:33.753,0.43115,0.52563,-0.15894;
18:42:33.763,0.44800,0.52368,-0.15381;
18:42:33.773,0.47510,0.53247,-0.14771;
18:42:33.783,0.50293,0.56006,-0.14722;
18:42:33.793,0.53662,0.60327,-0.14575;
18:42:33.803,0.57446,0.64404,-0.14673;
18:42:33.813,0.61255,0.68652,-0.15405;
18:42:33.823,0.64111,0.73071,-0.17334;
18:42:33.833,0.66284,0.76196,-0.18945;
18:42:33.843,0.67798,0.77612,-0.20410;
18:42:33.853,0.68286,0.77612,-0.21411;
18:42:33.863,0.68018,0.76660,-0.22266;
18:42:33.873,0.67212,0.74561,-0.22266;
18:42:33.883,0.66626,0.73779,-0.21704;
18:42:33.893,0.65967,0.74438,-0.23511;
18:42:33.903,0.63721,0.68213,-0.25806;
18:42:33.913,0.62915,0.65894,-0.27124;
18:42:33.923,0.62354,0.64819,-0.28027;
18:42:33.933,0.61694,0.64355,-0.28076;
18:42:33.943,0.61328,0.63574,-0.27319;
18:42:33.953,0.61377,0.63501,-0.26147;
18:42:33.963,0.61084,0.63379,-0.25464;
18:42:33.973,0.61670,0.63428,-0.25024;
18:42:33.983,0.62451,0.63550,-0.24463;
18:42:33.993,0.62817,0.63574,-0.23706;
18:42:34.003,0.63086,0.63745,-0.22778;
18:42:34.013,0.62793,0.63354,-0.21484;
18:42:34.023,0.62158,0.63257,-0.20630;
18:42:34.033,0.61816,0.63452,-0.19702;
18:42:34.043,0.61890,0.63672,-0.19336;
18:42:34.053,0.62329,0.63623,-0.18970;
18:42:34.063,0.63379,0.63599,-0.18384;
18:42:34.073,0.64868,0.64429,-0.17993;
18:42:34.083,0.66235,0.65674,-0.18091;
18:42:34.093,0.67505,0.67261,-0.18555;
18:42:34.103,0.68750,0.69409,-0.18726;
18:42:34.113,0.71094,0.72656,-0.19214;
18:42:34.123,0.75562,0.77661,-0.19360;
18:42:34.133,0.65698,1.05591,-0.11353;
18:42:34.143,0.40723,0.99805,-0.11157;
18:42:34.153,0.42163,1.00000,-0.14868;
18:42:34.163,0.44067,1.02246,-0.15259;
18:42:34.173,0.45532,1.07910,-0.14185;
18:42:34.183,0.47168,1.18701,-0.11865;
18:42:34.193,0.46582,1.32129,-0.05322;
18:42:34.203,0.44019,1.44263,0.03564;
18:42:34.213,0.41040,1.50171,0.11255;
18:42:34.223,0.36426,1.53662,0.20679;
18:42:34.233,0.31396,1.54199,0.27808;
18:42:34.243,0.26855,1.48804,0.30029;
18:42:34.253,0.22559,1.36084,0.31348;
18:42:34.263,0.18237,1.18457,0.28711;
18:42:34.273,0.15894,0.99780,0.22900;
18:42:34.283,0.14746,0.85132,0.16748;
18:42:34.293,0.14233,0.76733,0.11230;
18:42:34.303,0.14526,0.69360,0.06226;
18:42:34.313,0.15796,0.62915,0.01465;
18:42:34.323,0.18677,0.57153,-0.02026;
18:42:34.333,0.21777,0.53101,-0.05640;
18:42:34.343,0.25342,0.51538,-0.08862;
18:42:34.353,0.28687,0.52979,-0.10376;
18:42:34.363,0.33618,0.57983,-0.11084;
18:42:34.373,0.39185,0.65210,-0.11743;
18:42:34.383,0.43188,0.74756,-0.11328;
18:42:34.393,0.47632,0.84912,-0.11108;
18:42:34.403,0.51538,0.93774,-0.10596;
18:42:34.413,0.61084,1.07568,-0.04370;
18:42:34.423,0.63623,1.17603,0.01709;
18:42:34.433,0.57617,1.11914,0.07129;
18:42:34.443,0.52515,1.06177,0.06714;
18:42:34.453,0.50122,1.00488,0.04834;
18:42:34.463,0.48560,0.95435,0.03149;
18:42:34.473,0.45679,0.91992,0.01050;
18:42:34.483,0.42773,0.90430,-0.00928;
18:42:34.493,0.41162,0.89111,-0.02197;
18:42:34.503,0.41040,0.87158,-0.02539;
18:42:34.513,0.40894,0.84717,-0.02759;
18:42:34.523,0.40576,0.82837,-0.03369;
18:42:34.533,0.40503,0.81592,-0.03345;
18:42:34.543,0.40674,0.81445,-0.03223;
18:42:34.553,0.41187,0.81812,-0.02734;
18:42:34.563,0.41919,0.82568,-0.02246;
18:42:34.573,0.43018,0.84277,-0.00928;
18:42:34.583,0.44629,0.86255,-0.00244;
18:42:34.593,0.45752,0.88452,-0.00952;
18:42:34.603,0.46582,0.90576,-0.01538;
18:42:34.613,0.47729,0.92554,-0.03076;
18:42:34.623,0.48755,0.94263,-0.04541;
18:42:34.633,0.49731,0.95239,-0.05908;
18:42:34.643,0.50024,0.95142,-0.08569;
18:42:34.653,0.49756,0.94800,-0.08862;
18:42:34.663,0.49292,0.94995,-0.08618;
18:42:34.673,0.48804,0.95020,-0.08105;
18:42:34.683,0.48462,0.94751,-0.07251;
18:42:34.693,0.49756,0.93359,-0.04639;
18:42:34.703,0.50659,0.91919,-0.00977;
18:42:34.713,0.51147,0.90820,0.00513;
18:42:34.723,0.51880,0.89087,0.01904;
18:42:34.733,0.53027,0.86743,0.03613;
18:42:34.743,0.54028,0.83252,0.04907;
18:42:34.753,0.54004,0.79175,0.05493;
18:42:34.763,0.54150,0.76270,0.04810;
18:42:34.773,0.54150,0.73169,0.04102;
18:42:34.783,0.54492,0.70215,0.02563;
18:42:34.793,0.55005,0.67749,0.00146;
18:42:34.803,0.55200,0.65503,-0.02612;
18:42:34.813,0.55688,0.64185,-0.06104;
18:42:34.823,0.56812,0.63818,-0.09839;
18:42:34.833,0.58569,0.64575,-0.13037;
18:42:34.843,0.60645,0.65381,-0.16016;
18:42:34.853,0.63037,0.66431,-0.18921;
18:42:34.863,0.64502,0.68140,-0.21094;
18:42:34.873,0.65137,0.71069,-0.22974;
18:42:34.883,0.65747,0.75098,-0.23853;
18:42:34.893,0.66870,0.78320,-0.23926;
18:42:34.903,0.68677,0.81592,-0.23560;
18:42:34.913,0.74536,0.95386,-0.22510;
18:42:34.923,0.75098,0.99609,-0.22900;
18:42:34.933,0.73999,1.02515,-0.22729;
18:42:34.943,0.71045,1.03516,-0.22437;
18:42:34.953,0.67871,1.02026,-0.23560;
18:42:34.963,0.56299,0.89038,-0.23950;
18:42:34.973,0.50806,0.81836,-0.25317;
18:42:34.983,0.49512,0.79443,-0.26196;
18:42:34.993,0.48389,0.78223,-0.27124;
18:42:35.003,0.47266,0.77271,-0.26953;
18:42:35.013,0.46680,0.76929,-0.26611;
18:42:35.023,0.46289,0.76294,-0.26074;
18:42:35.033,0.46533,0.75464,-0.24878;
18:42:35.043,0.47827,0.74341,-0.23706;
18:42:35.053,0.49512,0.73901,-0.21973;
18:42:35.063,0.50708,0.75073,-0.20605;
18:42:35.073,0.51978,0.76782,-0.19092;
18:42:35.083,0.53687,0.77808,-0.17920;
18:42:35.093,0.55396,0.78467,-0.17310;
18:42:35.103,0.57324,0.78906,-0.16699;
18:42:35.113,0.58984,0.78955,-0.16724;
18:42:35.123,0.60596,0.78345,-0.17188;
18:42:35.133,0.62085,0.77417,-0.17896;
18:42:35.143,0.62939,0.76880,-0.18726;
18:42:35.153,0.63477,0.76440,-0.19189;
18:42:35.163,0.63867,0.75903,-0.19702;
18:42:35.173,0.63916,0.75610,-0.20142;
18:42:35.183,0.63525,0.75415,-0.20752;
18:42:35.193,0.62939,0.74292,-0.21289;
18:42:35.203,0.62158,0.73438,-0.22070;
18:42:35.213,0.61938,0.72998,-0.22461;
18:42:35.223,0.61157,0.72632,-0.22607;
18:42:35.233,0.60400,0.72900,-0.23096;
18:42:35.243,0.59790,0.73047,-0.23145;
18:42:35.253,0.59106,0.73535,-0.23267;
18:42:35.263,0.59521,0.75830,-0.23169;
18:42:35.273,0.59888,0.76416,-0.23486;
18:42:35.283,0.60425,0.76978,-0.23218;
18:42:35.293,0.60962,0.77246,-0.23413;
18:42:35.303,0.61597,0.77148,-0.23169;
18:42:35.313,0.62378,0.76880,-0.23193;
18:42:35.323,0.62842,0.76587,-0.22876;
18:42:35.333,0.63037,0.76392,-0.22412;
18:42:35.343,0.63159,0.76440,-0.22461;
18:42:35.353,0.63159,0.76685,-0.22803;
18:42:35.363,0.63330,0.76611,-0.23584;
18:42:35.373,0.64014,0.76855,-0.23779;
18:42:35.383,0.65723,0.77588,-0.24658;
18:42:35.393,0.68384,0.78467,-0.25708;
18:42:35.403,0.76001,0.80737,-0.26440;
18:42:35.413,0.80005,0.82056,-0.25415;
18:42:35.423,0.87109,0.82446,-0.22778;
18:42:35.433,0.88672,0.83472,-0.20117;
18:42:35.443,0.89087,0.84424,-0.17676;
18:42:35.453,0.89893,0.84009,-0.14917;
18:42:35.463,0.88379,0.81006,-0.12646;
18:42:35.473,0.83691,0.74927,-0.10938;
18:42:35.483,0.79346,0.67310,-0.08936;
18:42:35.493,0.76611,0.61353,-0.08105;
18:42:35.503,0.73193,0.58008,-0.09058;
18:42:35.513,0.53198,0.82544,-0.07056;
18:42:35.523,0.52100,0.82886,-0.02588;
18:42:35.533,0.51978,0.83862,0.01538;
18:42:35.543,0.51318,0.84692,0.05396;
18:42:35.553,0.50806,0.85522,0.08765;
18:42:35.563,0.51025,0.86108,0.11914;
18:42:35.573,0.51611,0.86719,0.13916;
18:42:35.583,0.51221,0.86914,0.14966;
18:42:35.593,0.50391,0.87476,0.15405;
18:42:35.603,0.49976,0.88818,0.14429;
18:42:35.613,0.49805,0.89673,0.12988;
18:42:35.623,0.50342,0.90308,0.11328;
18:42:35.633,0.50659,0.90137,0.09351;
18:42:35.643,0.50171,0.90259,0.07373;
18:42:35.653,0.49023,0.92188,0.04517;
18:42:35.663,0.48755,0.92993,0.03271;
18:42:35.673,0.48901,0.94385,0.01855;
18:42:35.683,0.49097,0.96069,0.00317;
18:42:35.693,0.49634,0.98853,-0.02344;
18:42:35.703,0.49731,0.98389,-0.01563;
18:42:35.713,0.49707,0.96826,-0.00366;
18:42:35.723,0.49194,0.95068,0.00513;
18:42:35.733,0.48145,0.92725,0.00781;
18:42:35.743,0.48682,0.86133,-0.01416;
18:42:35.753,0.49414,0.84180,-0.02686;
18:42:35.763,0.50317,0.82739,-0.03223;
18:42:35.773,0.51099,0.81812,-0.03027;
18:42:35.783,0.52173,0.81885,-0.03247;
18:42:35.793,0.53613,0.82373,-0.03906;
18:42:35.803,0.55396,0.82813,-0.05103;
18:42:35.813,0.58154,0.82935,-0.06714;
18:42:35.823,0.61084,0.81787,-0.07813;
18:42:35.833,0.63818,0.79028,-0.08252;
18:42:35.843,0.66699,0.76367,-0.08398;
18:42:35.853,0.70508,0.73438,-0.07495;
18:42:35.863,0.73291,0.70728,-0.04858;
18:42:35.873,0.74463,0.69873,-0.01123;
18:42:35.883,0.74023,0.69922,0.03467;
18:42:35.893,0.71289,0.70483,0.07520;
18:42:35.903,0.66528,0.72534,0.09448;
18:42:35.913,0.60205,0.76367,0.10522;
18:42:35.923,0.53662,0.80054,0.09985;
18:42:35.933,0.48267,0.83911,0.07275;
18:42:35.943,0.42871,0.88037,0.03784;
18:42:35.953,0.37964,0.89111,0.00146;
18:42:35.963,0.34229,0.86230,-0.01758;
18:42:35.973,0.30713,0.82788,-0.03052;
18:42:35.983,0.30835,0.85938,-0.04297;
18:42:35.993,0.32446,1.01147,-0.08936;
18:42:36.003,0.28369,1.65234,-0.44263;
18:42:36.013,0.30615,1.66895,-0.50708;
18:42:36.023,0.44971,1.13501,-0.34839;
18:42:36.033,0.41724,0.85547,-0.25220;
18:42:36.043,0.41406,0.76636,-0.23828;
18:42:36.053,0.43237,0.69287,-0.22729;
18:42:36.063,0.44312,0.62500,-0.22168;
18:42:36.073,0.44043,0.56396,-0.22168;
18:42:36.083,0.42017,0.50952,-0.22827;
18:42:36.093,0.39819,0.46997,-0.23193;
18:42:36.103,0.38232,0.44849,-0.24146;
18:42:36.113,0.37524,0.45874,-0.26318;
18:42:36.123,0.37793,0.49341,-0.28906;
18:42:36.133,0.38501,0.53711,-0.31128;
18:42:36.143,0.38892,0.57324,-0.32617;
18:42:36.153,0.39331,0.61426,-0.33447;
18:42:36.163,0.39722,0.64526,-0.33813;
