time,acc_x,acc_y,acc_z
19:36:19.241,-0.40430,-0.04419,-0.91406;
19:36:19.251,-0.40771,-0.04126,-0.91040;
19:36:19.261,-0.40723,-0.04053,-0.91479;
19:36:19.271,-0.40625,-0.04199,-0.91846;
19:36:19.281,-0.40649,-0.04028,-0.92163;
19:36:19.291,-0.40454,-0.04028,-0.92334;
19:36:19.301,-0.40405,-0.03931,-0.92432;
19:36:19.311,-0.40356,-0.03735,-0.91919;
19:36:19.321,-0.40552,-0.03491,-0.91211;
19:36:19.331,-0.40723,-0.03345,-0.91260;
19:36:19.341,-0.40967,-0.03003,-0.91235;
19:36:19.351,-0.41260,-0.02930,-0.90894;
19:36:19.361,-0.40967,-0.03345,-0.90845;
19:36:19.371,-0.41040,-0.02661,-0.90723;
19:36:19.381,-0.41113,-0.02734,-0.91040;
19:36:19.391,-0.40747,-0.03833,-0.91431;
19:36:19.401,-0.40405,-0.04346,-0.91162;
19:36:19.411,-0.40918,-0.03564,-0.91235;
19:36:19.421,-0.40820,-0.03540,-0.91162;
19:36:19.431,-0.40503,-0.03320,-0.91064;
19:36:19.441,-0.40747,-0.02783,-0.90796;
19:36:19.451,-0.40820,-0.03662,-0.91138;
19:36:19.461,-0.40771,-0.04736,-0.91260;
19:36:19.471,-0.40698,-0.04370,-0.91577;
19:36:19.481,-0.40625,-0.04688,-0.92041;
19:36:19.491,-0.40405,-0.05127,-0.91846;
19:36:19.501,-0.40503,-0.04370,-0.91748;
19:36:19.511,-0.40625,-0.04224,-0.91626;
19:36:19.521,-0.40332,-0.04419,-0.91943;
19:36:19.531,-0.40552,-0.04199,-0.91406;
19:36:19.541,-0.40454,-0.03784,-0.91187;
19:36:19.551,-0.40771,-0.03711,-0.90967;
19:36:19.561,-0.40723,-0.03369,-0.91284;
19:36:19.571,-0.40918,-0.02808,-0.90820;
19:36:19.581,-0.41064,-0.03687,-0.91309;
19:36:19.591,-0.40796,-0.03467,-0.91309;
19:36:19.601,-0.40649,-0.03809,-0.91187;
19:36:19.611,-0.40771,-0.03711,-0.91040;
19:36:19.621,-0.40601,-0.04541,-0.90894;
19:36:19.631,-0.40527,-0.04492,-0.90942;
19:36:19.641,-0.40723,-0.03809,-0.90771;
19:36:19.651,-0.40723,-0.04199,-0.91016;
19:36:19.661,-0.40527,-0.05151,-0.91724;
19:36:19.671,-0.40161,-0.05420,-0.92041;
19:36:19.681,-0.40161,-0.04907,-0.91724;
19:36:19.691,-0.40332,-0.05225,-0.91943;
19:36:19.701,-0.40137,-0.05786,-0.92578;
19:36:19.711,-0.40088,-0.05347,-0.91870;
19:36:19.721,-0.40039,-0.05420,-0.91772;
19:36:19.731,-0.40063,-0.05640,-0.92041;
19:36:19.741,-0.40381,-0.05444,-0.92041;
19:36:19.751,-0.40454,-0.05322,-0.92261;
19:36:19.761,-0.40356,-0.05444,-0.92212;
19:36:19.771,-0.40210,-0.05103,-0.91992;
19:36:19.781,-0.40137,-0.05493,-0.92212;
19:36:19.791,-0.40015,-0.05884,-0.92212;
19:36:19.801,-0.39990,-0.05298,-0.92163;
19:36:19.811,-0.40063,-0.05396,-0.92407;
19:36:19.821,-0.40186,-0.06055,-0.92847;
19:36:19.831,-0.39966,-0.05688,-0.92725;
19:36:19.841,-0.39893,-0.05493,-0.92700;
19:36:19.851,-0.39966,-0.06152,-0.93164;
19:36:19.861,-0.40332,-0.05005,-0.92847;
19:36:19.871,-0.40332,-0.02832,-0.94434;
19:36:19.881,-0.40381,-0.01929,-0.93555;
19:36:19.891,-0.40796,-0.02588,-0.92236;
19:36:19.901,-0.41431,-0.03857,-0.91284;
19:36:19.911,-0.41260,-0.03516,-0.89624;
19:36:19.921,-0.42236,-0.01221,-0.89575;
19:36:19.931,-0.42505,0.00928,-0.89771;
19:36:19.941,-0.42310,0.01660,-0.88745;
19:36:19.951,-0.43066,0.02686,-0.86938;
19:36:19.961,-0.44531,0.04590,-0.85083;
19:36:19.971,-0.45874,0.04785,-0.83594;
19:36:19.981,-0.46069,0.03931,-0.83032;
19:36:19.991,-0.45288,0.03174,-0.82715;
19:36:20.001,-0.44531,0.01953,-0.82495;
19:36:20.011,-0.44727,0.01416,-0.82275;
19:36:20.021,-0.44727,0.00928,-0.81909;
19:36:20.031,-0.44507,0.00122,-0.82983;
19:36:20.041,-0.43555,-0.00073,-0.84692;
19:36:20.051,-0.42163,-0.01001,-0.87134;
19:36:20.061,-0.41919,-0.01758,-0.89087;
19:36:20.071,-0.41382,-0.02710,-0.89551;
19:36:20.081,-0.40942,-0.03906,-0.89673;
19:36:20.091,-0.39941,-0.06934,-0.90747;
19:36:20.101,-0.38574,-0.09302,-0.92456;
19:36:20.111,-0.38086,-0.12231,-0.92578;
19:36:20.121,-0.37231,-0.13501,-0.94189;
19:36:20.131,-0.36108,-0.13916,-0.96240;
19:36:20.141,-0.35352,-0.14453,-0.96191;
19:36:20.151,-0.34644,-0.12866,-0.96582;
19:36:20.161,-0.34741,-0.13477,-0.97583;
19:36:20.171,-0.34497,-0.14038,-0.99707;
19:36:20.181,-0.32422,-0.12231,-1.01904;
19:36:20.191,-0.32617,-0.11597,-1.01636;
19:36:20.201,-0.33252,-0.13916,-0.99023;
19:36:20.211,-0.33740,-0.14380,-0.97925;
19:36:20.221,-0.34863,-0.12695,-0.97119;
19:36:20.231,-0.35669,-0.11182,-0.96558;
19:36:20.241,-0.36133,-0.11646,-0.95508;
19:36:20.251,-0.36499,-0.10791,-0.94751;
19:36:20.261,-0.36450,-0.09277,-0.93066;
19:36:20.271,-0.37451,-0.07666,-0.92285;
19:36:20.281,-0.38623,-0.06396,-0.92188;
19:36:20.291,-0.38745,-0.04150,-0.91748;
19:36:20.301,-0.39209,-0.02661,-0.90845;
19:36:20.311,-0.39453,-0.03101,-0.90332;
19:36:20.321,-0.39307,-0.03125,-0.89648;
19:36:20.331,-0.39746,-0.03174,-0.89233;
19:36:20.341,-0.40088,-0.02563,-0.88745;
19:36:20.351,-0.40308,-0.02612,-0.88599;
19:36:20.361,-0.40527,-0.02759,-0.88965;
19:36:20.371,-0.40454,-0.02124,-0.89282;
19:36:20.381,-0.40649,-0.01392,-0.88477;
19:36:20.391,-0.40405,-0.02637,-0.89404;
19:36:20.401,-0.40430,-0.03003,-0.88745;
19:36:20.411,-0.40381,-0.02002,-0.89307;
19:36:20.421,-0.39868,-0.02710,-0.90356;
19:36:20.431,-0.39697,-0.04272,-0.90796;
19:36:20.441,-0.39893,-0.03638,-0.90869;
19:36:20.451,-0.40308,-0.02783,-0.91162;
19:36:20.461,-0.39990,-0.03467,-0.91528;
19:36:20.471,-0.39673,-0.04150,-0.91724;
19:36:20.481,-0.39795,-0.04297,-0.91943;
19:36:20.491,-0.39624,-0.04346,-0.91577;
19:36:20.501,-0.39526,-0.04272,-0.92188;
19:36:20.511,-0.39209,-0.04736,-0.92578;
19:36:20.521,-0.39063,-0.05273,-0.92896;
19:36:20.531,-0.39307,-0.05420,-0.93066;
19:36:20.541,-0.39233,-0.05029,-0.92847;
19:36:20.551,-0.39063,-0.04590,-0.92725;
19:36:20.561,-0.39233,-0.04663,-0.92627;
19:36:20.571,-0.39233,-0.04688,-0.92725;
19:36:20.581,-0.39087,-0.04150,-0.92627;
19:36:20.591,-0.39160,-0.04053,-0.92480;
19:36:20.601,-0.39258,-0.03491,-0.92090;
19:36:20.611,-0.39307,-0.04077,-0.91943;
19:36:20.621,-0.39551,-0.03955,-0.92188;
19:36:20.631,-0.39697,-0.03076,-0.91797;
19:36:20.641,-0.39771,-0.03027,-0.91309;
19:36:20.651,-0.39648,-0.02759,-0.91357;
19:36:20.661,-0.39795,-0.03027,-0.91479;
19:36:20.671,-0.39990,-0.03149,-0.91382;
19:36:20.681,-0.40039,-0.02881,-0.91479;
19:36:20.691,-0.40161,-0.02832,-0.91748;
19:36:20.701,-0.40137,-0.03003,-0.91382;
19:36:20.711,-0.39941,-0.02905,-0.91113;
19:36:20.721,-0.39795,-0.02832,-0.91162;
19:36:20.731,-0.39917,-0.03198,-0.91260;
19:36:20.741,-0.39917,-0.03320,-0.91016;
19:36:20.751,-0.39941,-0.02979,-0.91064;
19:36:20.761,-0.39771,-0.03906,-0.91504;
19:36:20.771,-0.39795,-0.03687,-0.91577;
19:36:20.781,-0.39771,-0.03857,-0.91943;
19:36:20.791,-0.39673,-0.04248,-0.92358;
19:36:20.801,-0.39551,-0.04688,-0.92407;
19:36:20.811,-0.39453,-0.04443,-0.92261;
19:36:20.821,-0.39331,-0.04663,-0.92334;
19:36:20.831,-0.39355,-0.04712,-0.92554;
19:36:20.841,-0.39429,-0.04443,-0.92212;
19:36:20.851,-0.39453,-0.03882,-0.92334;
19:36:20.861,-0.39673,-0.03931,-0.92188;
19:36:20.871,-0.39624,-0.04248,-0.92505;
19:36:20.881,-0.39624,-0.03882,-0.92480;
19:36:20.891,-0.39478,-0.03687,-0.92212;
19:36:20.901,-0.39404,-0.03833,-0.92456;
19:36:20.911,-0.39648,-0.03589,-0.91943;
19:36:20.921,-0.39673,-0.02954,-0.91870;
19:36:20.931,-0.39648,-0.03345,-0.91724;
19:36:20.941,-0.39819,-0.03516,-0.91455;
19:36:20.951,-0.39966,-0.03149,-0.91284;
19:36:20.961,-0.39893,-0.02832,-0.91162;
19:36:20.971,-0.39844,-0.03125,-0.91235;
19:36:20.981,-0.39917,-0.03271,-0.91382;
19:36:20.991,-0.39819,-0.03003,-0.91211;
19:36:21.001,-0.39746,-0.03491,-0.90991;
19:36:21.011,-0.39673,-0.03857,-0.91089;
19:36:21.021,-0.39624,-0.03638,-0.91870;
19:36:21.031,-0.39380,-0.03857,-0.91870;
19:36:21.041,-0.39453,-0.03979,-0.92041;
19:36:21.051,-0.39404,-0.04785,-0.92261;
19:36:21.061,-0.39258,-0.04590,-0.92383;
19:36:21.071,-0.39233,-0.04370,-0.92676;
19:36:21.081,-0.39160,-0.04565,-0.92749;
19:36:21.091,-0.39185,-0.04858,-0.92114;
19:36:21.101,-0.39429,-0.04077,-0.91943;
19:36:21.111,-0.39282,-0.03955,-0.91650;
19:36:21.121,-0.39551,-0.04102,-0.91626;
19:36:21.131,-0.39771,-0.03979,-0.91309;
19:36:21.141,-0.39746,-0.03320,-0.91479;
19:36:21.151,-0.39746,-0.03394,-0.91675;
19:36:21.161,-0.39624,-0.03662,-0.91626;
19:36:21.171,-0.39502,-0.03320,-0.91821;
19:36:21.181,-0.39697,-0.03394,-0.92017;
19:36:21.191,-0.39771,-0.03394,-0.91943;
19:36:21.201,-0.39893,-0.03662,-0.91577;
19:36:21.211,-0.39746,-0.03491,-0.91992;
19:36:21.221,-0.39331,-0.03247,-0.92407;
19:36:21.231,-0.39282,-0.03540,-0.92188;
19:36:21.241,-0.39111,-0.03491,-0.91821;
19:36:21.251,-0.39233,-0.03760,-0.91650;
19:36:21.261,-0.39502,-0.04126,-0.91968;
19:36:21.271,-0.39526,-0.04736,-0.92163;
19:36:21.281,-0.39453,-0.04541,-0.92334;
19:36:21.291,-0.39453,-0.04150,-0.92041;
19:36:21.301,-0.39478,-0.04736,-0.92139;
19:36:21.311,-0.39258,-0.05273,-0.92188;
19:36:21.321,-0.39258,-0.04980,-0.92041;
19:36:21.331,-0.39355,-0.05273,-0.92383;
19:36:21.341,-0.39185,-0.05371,-0.92456;
19:36:21.351,-0.39380,-0.04492,-0.92236;
19:36:21.361,-0.39453,-0.04834,-0.92212;
19:36:21.371,-0.39282,-0.04297,-0.92114;
19:36:21.381,-0.39209,-0.04443,-0.92285;
19:36:21.391,-0.39404,-0.05078,-0.92432;
19:36:21.401,-0.39233,-0.04858,-0.92212;
19:36:21.411,-0.39136,-0.04126,-0.92456;
19:36:21.421,-0.39014,-0.04150,-0.92749;
19:36:21.431,-0.38892,-0.04468,-0.92554;
19:36:21.441,-0.39258,-0.04199,-0.92236;
19:36:21.451,-0.39673,-0.04565,-0.92383;
19:36:21.461,-0.39526,-0.04785,-0.92554;
19:36:21.471,-0.39722,-0.04053,-0.92212;
19:36:21.481,-0.39844,-0.03345,-0.91870;
19:36:21.491,-0.39648,-0.03711,-0.91870;
19:36:21.501,-0.39819,-0.04614,-0.91455;
19:36:21.511,-0.39990,-0.04395,-0.91724;
19:36:21.521,-0.40137,-0.03662,-0.91260;
19:36:21.531,-0.40332,-0.02905,-0.91016;
19:36:21.541,-0.40186,-0.02124,-0.91113;
19:36:21.551,-0.39893,-0.02319,-0.91138;
19:36:21.561,-0.39722,-0.02319,-0.90747;
19:36:21.571,-0.39722,-0.01733,-0.90479;
19:36:21.581,-0.40308,-0.01904,-0.90479;
19:36:21.591,-0.40381,-0.02515,-0.90845;
19:36:21.601,-0.40601,-0.02417,-0.90894;
19:36:21.611,-0.40649,-0.01660,-0.90552;
19:36:21.621,-0.40674,-0.00757,-0.90259;
19:36:21.631,-0.40967,-0.00269,-0.90137;
19:36:21.641,-0.40674,-0.01050,-0.90723;
19:36:21.651,-0.40039,-0.02881,-0.91699;
19:36:21.661,-0.40186,-0.03955,-0.91919;
19:36:21.671,-0.40234,-0.03076,-0.91870;
19:36:21.681,-0.39624,-0.04077,-0.92651;
19:36:21.691,-0.39600,-0.05273,-0.92603;
19:36:21.701,-0.39526,-0.04688,-0.92627;
19:36:21.711,-0.39160,-0.05469,-0.93384;
19:36:21.721,-0.39160,-0.06348,-0.93799;
19:36:21.731,-0.39355,-0.06421,-0.93652;
19:36:21.741,-0.39209,-0.06055,-0.93628;
19:36:21.751,-0.39331,-0.06079,-0.93359;
19:36:21.761,-0.39307,-0.05298,-0.92993;
19:36:21.771,-0.39551,-0.04614,-0.92749;
19:36:21.781,-0.39575,-0.04053,-0.92725;
19:36:21.791,-0.39478,-0.03442,-0.92578;
19:36:21.801,-0.39575,-0.03564,-0.92188;
19:36:21.811,-0.39624,-0.02734,-0.91968;
19:36:21.821,-0.39844,-0.01855,-0.91724;
19:36:21.831,-0.40161,-0.02148,-0.91772;
19:36:21.841,-0.40308,-0.02808,-0.91650;
19:36:21.851,-0.40503,-0.02295,-0.91626;
19:36:21.861,-0.40405,-0.01440,-0.92065;
19:36:21.871,-0.40771,-0.02783,-0.90723;
19:36:21.881,-0.40894,-0.03809,-0.90283;
19:36:21.891,-0.40869,-0.02930,-0.91211;
19:36:21.901,-0.40723,-0.03003,-0.91235;
19:36:21.911,-0.40454,-0.02930,-0.91431;
19:36:21.921,-0.40649,-0.02612,-0.91577;
19:36:21.931,-0.40332,-0.02661,-0.91553;
19:36:21.941,-0.40161,-0.02856,-0.91895;
19:36:21.951,-0.39941,-0.03540,-0.91846;
19:36:21.961,-0.39844,-0.03052,-0.91577;
19:36:21.971,-0.40186,-0.03735,-0.91382;
19:36:21.981,-0.40527,-0.04492,-0.91528;
19:36:21.991,-0.40894,-0.03882,-0.91602;
19:36:22.001,-0.41113,-0.03955,-0.91211;
19:36:22.011,-0.40991,-0.04590,-0.91382;
19:36:22.021,-0.40405,-0.04468,-0.91602;
19:36:22.031,-0.40088,-0.02979,-0.91675;
19:36:22.041,-0.40186,-0.02100,-0.91968;
19:36:22.051,-0.40234,-0.02344,-0.92285;
19:36:22.061,-0.40137,-0.02710,-0.92407;
19:36:22.071,-0.40308,-0.02466,-0.92212;
19:36:22.081,-0.40454,-0.01489,-0.91797;
19:36:22.091,-0.40479,-0.02441,-0.91309;
19:36:22.101,-0.40332,-0.02417,-0.91724;
19:36:22.111,-0.40381,-0.02783,-0.91235;
19:36:22.121,-0.40210,-0.02295,-0.90942;
19:36:22.131,-0.40210,-0.01904,-0.91284;
19:36:22.141,-0.40430,-0.02295,-0.91089;
19:36:22.151,-0.40527,-0.02808,-0.90527;
19:36:22.161,-0.40405,-0.02759,-0.91162;
19:36:22.171,-0.40210,-0.03223,-0.91992;
19:36:22.181,-0.40186,-0.04297,-0.92529;
19:36:22.191,-0.40210,-0.04077,-0.92700;
19:36:22.201,-0.39917,-0.03784,-0.92676;
19:36:22.211,-0.39502,-0.04126,-0.92749;
19:36:22.221,-0.39258,-0.04517,-0.92285;
19:36:22.231,-0.38672,-0.05371,-0.92383;
19:36:22.241,-0.39429,-0.04980,-0.93701;
19:36:22.251,-0.39795,-0.03101,-0.92798;
19:36:22.261,-0.39697,-0.04810,-0.92139;
19:36:22.271,-0.38867,-0.14893,-0.89282;
19:36:22.281,-0.36890,-0.15430,-0.93481;
19:36:22.291,-0.38135,0.06958,-0.99487;
19:36:22.301,-0.40259,0.07886,-0.90039;
19:36:22.311,-0.41675,-0.06494,-0.90894;
19:36:22.321,-0.41040,-0.03906,-0.94312;
19:36:22.331,-0.39673,-0.01074,-0.88867;
19:36:22.341,-0.42017,-0.04248,-0.91772;
19:36:22.351,-0.40381,-0.06104,-0.93628;
19:36:22.361,-0.38330,-0.04199,-0.91602;
19:36:22.371,-0.39209,-0.04175,-0.90967;
19:36:22.381,-0.39331,-0.03271,-0.91309;
19:36:22.391,-0.40039,-0.02808,-0.91602;
19:36:22.401,-0.39282,-0.04517,-0.90845;
19:36:22.411,-0.39160,-0.04712,-0.90259;
19:36:22.421,-0.39648,-0.04150,-0.90137;
19:36:22.431,-0.39453,-0.04834,-0.91016;
19:36:22.441,-0.39648,-0.03979,-0.91846;
19:36:22.451,-0.39722,-0.04126,-0.92529;
19:36:22.461,-0.39282,-0.03687,-0.93262;
19:36:22.471,-0.39478,-0.05176,-0.93066;
19:36:22.481,-0.39575,-0.04175,-0.92456;
19:36:22.491,-0.39795,-0.04492,-0.91235;
19:36:22.501,-0.40137,-0.04102,-0.91064;
19:36:22.511,-0.39380,-0.03564,-0.93091;
19:36:22.521,-0.39575,-0.03345,-0.91650;
19:36:22.531,-0.40063,-0.03125,-0.90942;
19:36:22.541,-0.40503,-0.02881,-0.91675;
19:36:22.551,-0.40161,-0.02905,-0.92017;
19:36:22.561,-0.39404,-0.03320,-0.91699;
19:36:22.571,-0.39111,-0.04199,-0.91357;
19:36:22.581,-0.39233,-0.05298,-0.91064;
19:36:22.591,-0.39624,-0.04224,-0.89600;
19:36:22.601,-0.40210,-0.03491,-0.89551;
19:36:22.611,-0.40308,-0.04761,-0.90332;
19:36:22.621,-0.40161,-0.05273,-0.90161;
19:36:22.631,-0.39917,-0.05518,-0.89722;
19:36:22.641,-0.39966,-0.07666,-0.89844;
19:36:22.651,-0.40503,-0.05933,-0.91821;
19:36:22.661,-0.40039,-0.02881,-0.92114;
19:36:22.671,-0.39331,-0.02734,-0.91357;
19:36:22.681,-0.39502,-0.04370,-0.91895;
19:36:22.691,-0.39453,-0.05762,-0.91748;
19:36:22.701,-0.39478,-0.05396,-0.91333;
19:36:22.711,-0.39697,-0.06006,-0.91772;
19:36:22.721,-0.39600,-0.06226,-0.91650;
19:36:22.731,-0.39087,-0.06030,-0.91357;
19:36:22.741,-0.39258,-0.06177,-0.91797;
19:36:22.751,-0.39526,-0.05908,-0.91333;
19:36:22.761,-0.39575,-0.04834,-0.91064;
19:36:22.771,-0.39990,-0.04395,-0.90942;
19:36:22.781,-0.40210,-0.04614,-0.89941;
19:36:22.791,-0.40503,-0.04004,-0.88867;
19:36:22.801,-0.40479,-0.02441,-0.87402;
19:36:22.811,-0.40918,-0.02026,-0.85571;
19:36:22.821,-0.40698,-0.02759,-0.84668;
19:36:22.831,-0.40308,-0.04688,-0.84644;
19:36:22.841,-0.39990,-0.06616,-0.84521;
19:36:22.851,-0.39502,-0.07886,-0.83984;
19:36:22.861,-0.39185,-0.08228,-0.84937;
19:36:22.871,-0.38696,-0.10010,-0.85303;
19:36:22.881,-0.37866,-0.09131,-0.87598;
19:36:22.891,-0.37085,-0.10156,-0.89722;
19:36:22.901,-0.35059,-0.10132,-0.91992;
19:36:22.911,-0.33276,-0.09155,-0.94165;
19:36:22.921,-0.33569,-0.11279,-0.95264;
19:36:22.931,-0.32495,-0.13672,-0.98560;
19:36:22.941,-0.30322,-0.14478,-1.01978;
19:36:22.951,-0.27026,-0.19116,-1.06689;
19:36:22.961,-0.27100,-0.22559,-1.04712;
19:36:22.971,-0.26953,-0.23364,-1.02466;
19:36:22.981,-0.28540,-0.20630,-1.00610;
19:36:22.991,-0.30444,-0.17993,-0.98926;
19:36:23.001,-0.31201,-0.16724,-0.97241;
19:36:23.011,-0.31982,-0.15845,-0.96216;
19:36:23.021,-0.32910,-0.13965,-0.94189;
19:36:23.031,-0.33691,-0.11377,-0.92041;
19:36:23.041,-0.34912,-0.09302,-0.90820;
19:36:23.051,-0.36060,-0.08008,-0.89258;
19:36:23.061,-0.36670,-0.07031,-0.87793;
19:36:23.071,-0.36987,-0.06470,-0.86792;
19:36:23.081,-0.37476,-0.06348,-0.87256;
19:36:23.091,-0.37695,-0.07104,-0.87866;
19:36:23.101,-0.37354,-0.07520,-0.88086;
19:36:23.111,-0.36743,-0.07031,-0.88574;
19:36:23.121,-0.36304,-0.07397,-0.89014;
19:36:23.131,-0.35474,-0.08423,-0.90649;
19:36:23.141,-0.34741,-0.10693,-0.92261;
19:36:23.151,-0.33691,-0.13232,-0.93823;
19:36:23.161,-0.33154,-0.13770,-0.94849;
19:36:23.171,-0.32935,-0.13403,-0.95410;
19:36:23.181,-0.32593,-0.14111,-0.96411;
19:36:23.191,-0.32080,-0.15210,-0.96924;
19:36:23.201,-0.31592,-0.16016,-0.97217;
19:36:23.211,-0.31470,-0.16260,-0.97754;
19:36:23.221,-0.31519,-0.15894,-0.97925;
19:36:23.231,-0.32202,-0.15698,-0.97144;
19:36:23.241,-0.32617,-0.14917,-0.96460;
19:36:23.251,-0.32593,-0.13989,-0.95898;
19:36:23.261,-0.32983,-0.13306,-0.95166;
19:36:23.271,-0.33521,-0.12793,-0.94360;
19:36:23.281,-0.34009,-0.11572,-0.92773;
19:36:23.291,-0.34473,-0.09570,-0.91846;
19:36:23.301,-0.35132,-0.08130,-0.91357;
19:36:23.311,-0.35913,-0.07544,-0.90942;
19:36:23.321,-0.36621,-0.08154,-0.90259;
19:36:23.331,-0.37158,-0.08179,-0.89600;
19:36:23.341,-0.37256,-0.07129,-0.89355;
19:36:23.351,-0.37158,-0.06323,-0.88794;
19:36:23.361,-0.36914,-0.05615,-0.88550;
19:36:23.371,-0.37207,-0.04883,-0.88843;
19:36:23.381,-0.37134,-0.05078,-0.89404;
19:36:23.391,-0.36426,-0.06641,-0.90210;
19:36:23.401,-0.36182,-0.07739,-0.90698;
19:36:23.411,-0.36060,-0.08057,-0.91211;
19:36:23.421,-0.35889,-0.07666,-0.91553;
19:36:23.431,-0.35547,-0.07520,-0.92236;
19:36:23.441,-0.34961,-0.09692,-0.93286;
19:36:23.451,-0.34253,-0.11963,-0.93213;
19:36:23.461,-0.33643,-0.12085,-0.93384;
19:36:23.471,-0.34277,-0.11816,-0.94067;
19:36:23.481,-0.33716,-0.12573,-0.94824;
19:36:23.491,-0.32593,-0.13403,-0.95361;
19:36:23.501,-0.32617,-0.14429,-0.95508;
19:36:23.511,-0.32861,-0.15454,-0.95557;
19:36:23.521,-0.32739,-0.15894,-0.94922;
19:36:23.531,-0.32715,-0.15894,-0.94458;
19:36:23.541,-0.32642,-0.13110,-0.95264;
19:36:23.551,-0.32397,-0.11621,-0.95288;
19:36:23.561,-0.32739,-0.13086,-0.94897;
19:36:23.571,-0.32959,-0.13721,-0.94287;
19:36:23.581,-0.33398,-0.13550,-0.93433;
19:36:23.591,-0.33716,-0.13062,-0.93726;
19:36:23.601,-0.33911,-0.13159,-0.93774;
19:36:23.611,-0.33740,-0.13477,-0.93359;
19:36:23.621,-0.33472,-0.12256,-0.93823;
19:36:23.631,-0.34253,-0.13599,-0.92725;
19:36:23.641,-0.33838,-0.13770,-0.93018;
19:36:23.651,-0.33789,-0.11670,-0.93579;
19:36:23.661,-0.33887,-0.12256,-0.93311;
19:36:23.671,-0.33374,-0.12817,-0.93848;
19:36:23.681,-0.33447,-0.13232,-0.94287;
19:36:23.691,-0.33252,-0.13403,-0.94482;
19:36:23.701,-0.33374,-0.13623,-0.95068;
19:36:23.711,-0.33154,-0.13452,-0.95483;
19:36:23.721,-0.33154,-0.13745,-0.95459;
19:36:23.731,-0.33179,-0.13843,-0.96338;
19:36:23.741,-0.32910,-0.13062,-0.96143;
19:36:23.751,-0.32983,-0.12964,-0.96460;
19:36:23.761,-0.33154,-0.13550,-0.96021;
19:36:23.771,-0.33594,-0.10864,-0.94580;
19:36:23.781,-0.34448,-0.07397,-0.93091;
19:36:23.791,-0.35449,-0.05518,-0.91895;
19:36:23.801,-0.37622,-0.02612,-0.85474;
19:36:23.811,-0.39209,-0.02026,-0.84009;
19:36:23.821,-0.39795,-0.03320,-0.84570;
19:36:23.831,-0.38550,-0.06470,-0.86475;
19:36:23.841,-0.35938,-0.10034,-0.90063;
19:36:23.851,-0.33960,-0.21777,-0.93750;
19:36:23.861,-0.27490,-0.14966,-1.03198;
19:36:23.871,-0.27246,-0.18530,-1.04077;
19:36:23.881,-0.27319,-0.23242,-1.02148;
19:36:23.891,-0.29004,-0.20190,-1.00610;
19:36:23.901,-0.30249,-0.18164,-1.00732;
19:36:23.911,-0.30444,-0.17944,-0.99536;
19:36:23.921,-0.31592,-0.16382,-0.98120;
19:36:23.931,-0.32568,-0.13770,-0.96704;
19:36:23.941,-0.33374,-0.10400,-0.95264;
19:36:23.951,-0.34717,-0.07471,-0.94141;
19:36:23.961,-0.35547,-0.05835,-0.92627;
19:36:23.971,-0.36548,-0.04541,-0.90723;
19:36:23.981,-0.37695,-0.03931,-0.88770;
19:36:23.991,-0.38281,-0.03662,-0.87402;
19:36:24.001,-0.38672,-0.02661,-0.86768;
19:36:24.011,-0.39478,-0.02441,-0.85400;
19:36:24.021,-0.39941,-0.01831,-0.84229;
19:36:24.031,-0.40332,-0.01074,-0.82031;
19:36:24.041,-0.40405,0.00146,-0.81006;
19:36:24.051,-0.39771,0.01782,-0.81689;
19:36:24.061,-0.40601,0.01343,-0.82178;
19:36:24.071,-0.40601,-0.00024,-0.83032;
19:36:24.081,-0.39990,-0.02417,-0.83813;
19:36:24.091,-0.39307,-0.05176,-0.84521;
19:36:24.101,-0.38623,-0.08496,-0.86182;
19:36:24.111,-0.37891,-0.12134,-0.88525;
19:36:24.121,-0.35571,-0.14990,-0.91870;
19:36:24.131,-0.33740,-0.16357,-0.96436;
19:36:24.141,-0.31909,-0.17554,-0.99854;
19:36:24.151,-0.27856,-0.19995,-1.03296;
19:36:24.161,-0.25537,-0.19800,-1.10181;
19:36:24.171,-0.24878,-0.24219,-1.07983;
19:36:24.181,-0.25757,-0.24854,-1.04077;
19:36:24.191,-0.27734,-0.22339,-1.02661;
19:36:24.201,-0.28540,-0.20752,-1.01514;
19:36:24.211,-0.29102,-0.18262,-0.99023;
19:36:24.221,-0.31177,-0.14404,-0.97412;
19:36:24.231,-0.32617,-0.11011,-0.95410;
19:36:24.241,-0.34766,-0.06860,-0.93091;
19:36:24.251,-0.36768,-0.03638,-0.91187;
19:36:24.261,-0.38770,-0.02393,-0.85913;
19:36:24.271,-0.39697,-0.03247,-0.83521;
19:36:24.281,-0.40015,-0.03467,-0.82764;
19:36:24.291,-0.40039,-0.02588,-0.82764;
19:36:24.301,-0.40430,-0.02368,-0.83643;
19:36:24.311,-0.39624,-0.02344,-0.85010;
19:36:24.321,-0.38843,-0.02979,-0.85962;
19:36:24.331,-0.38232,-0.03833,-0.86816;
19:36:24.341,-0.37622,-0.04346,-0.87744;
19:36:24.351,-0.37256,-0.05469,-0.88623;
19:36:24.361,-0.36450,-0.06689,-0.89966;
19:36:24.371,-0.35010,-0.08398,-0.92212;
19:36:24.381,-0.33838,-0.10938,-0.94727;
19:36:24.391,-0.32886,-0.14502,-0.96753;
19:36:24.401,-0.32056,-0.16748,-0.98242;
19:36:24.411,-0.31299,-0.17993,-0.99731;
19:36:24.421,-0.29956,-0.17822,-1.00781;
19:36:24.431,-0.29541,-0.16431,-0.99756;
19:36:24.441,-0.30396,-0.15625,-0.98486;
19:36:24.451,-0.31714,-0.14502,-0.97534;
19:36:24.461,-0.32593,-0.14380,-0.96680;
19:36:24.471,-0.32861,-0.14355,-0.96094;
19:36:24.481,-0.33374,-0.13354,-0.94897;
19:36:24.491,-0.34521,-0.11353,-0.93237;
19:36:24.501,-0.35718,-0.09302,-0.91431;
19:36:24.511,-0.36255,-0.07471,-0.90015;
19:36:24.521,-0.36865,-0.06226,-0.89087;
19:36:24.531,-0.37036,-0.05615,-0.88306;
19:36:24.541,-0.37378,-0.05786,-0.88232;
19:36:24.551,-0.37573,-0.05615,-0.88623;
19:36:24.561,-0.37305,-0.05542,-0.89014;
19:36:24.571,-0.36792,-0.06104,-0.90137;
19:36:24.581,-0.36133,-0.06812,-0.90894;
19:36:24.591,-0.35986,-0.07568,-0.91479;
19:36:24.601,-0.35693,-0.08081,-0.91821;
19:36:24.611,-0.34985,-0.08472,-0.92285;
19:36:24.621,-0.34448,-0.09570,-0.93311;
19:36:24.631,-0.34155,-0.10815,-0.94409;
19:36:24.641,-0.33594,-0.12231,-0.95361;
19:36:24.651,-0.33374,-0.12695,-0.96069;
19:36:24.661,-0.33228,-0.12451,-0.96167;
19:36:24.671,-0.33032,-0.11816,-0.95972;
19:36:24.681,-0.33081,-0.11450,-0.95386;
19:36:24.691,-0.33398,-0.11646,-0.95459;
19:36:24.701,-0.33740,-0.12061,-0.95020;
19:36:24.711,-0.33936,-0.12012,-0.94360;
19:36:24.721,-0.34155,-0.11060,-0.93359;
19:36:24.731,-0.34619,-0.10034,-0.92920;
19:36:24.741,-0.35034,-0.09741,-0.92773;
19:36:24.751,-0.35327,-0.09326,-0.92285;
19:36:24.761,-0.35522,-0.08496,-0.91943;
19:36:24.771,-0.35815,-0.07959,-0.91333;
19:36:24.781,-0.35889,-0.07837,-0.91284;
19:36:24.791,-0.35889,-0.07617,-0.91528;
19:36:24.801,-0.36206,-0.07300,-0.91235;
19:36:24.811,-0.36426,-0.07153,-0.91235;
19:36:24.821,-0.36182,-0.07178,-0.91895;
19:36:24.831,-0.35986,-0.07568,-0.92261;
19:36:24.841,-0.35791,-0.08203,-0.92798;
19:36:24.851,-0.35449,-0.08716,-0.93237;
19:36:24.861,-0.34814,-0.09253,-0.93701;
19:36:24.871,-0.34424,-0.09448,-0.93994;
19:36:24.881,-0.34351,-0.09326,-0.93970;
19:36:24.891,-0.34204,-0.09546,-0.94189;
19:36:24.901,-0.34082,-0.10571,-0.94604;
19:36:24.911,-0.34058,-0.10645,-0.94360;
19:36:24.921,-0.34326,-0.09814,-0.93750;
19:36:24.931,-0.34717,-0.09424,-0.93921;
19:36:24.941,-0.35107,-0.09692,-0.93848;
19:36:24.951,-0.34961,-0.09790,-0.93530;
19:36:24.961,-0.35156,-0.09180,-0.93384;
19:36:24.971,-0.35352,-0.09033,-0.93384;
19:36:24.981,-0.35400,-0.09302,-0.93628;
19:36:24.991,-0.35400,-0.08789,-0.93188;
19:36:25.001,-0.35474,-0.07568,-0.92480;
19:36:25.011,-0.35815,-0.06812,-0.92017;
19:36:25.021,-0.35596,-0.07520,-0.92700;
19:36:25.031,-0.35181,-0.08716,-0.93164;
19:36:25.041,-0.35498,-0.08716,-0.92798;
19:36:25.051,-0.35596,-0.08276,-0.92725;
19:36:25.061,-0.35376,-0.08252,-0.92700;
19:36:25.071,-0.35229,-0.07959,-0.92773;
19:36:25.081,-0.35303,-0.07642,-0.92773;
19:36:25.091,-0.35474,-0.07910,-0.93140;
19:36:25.101,-0.35596,-0.08423,-0.93359;
19:36:25.111,-0.35352,-0.08936,-0.93799;
19:36:25.121,-0.34937,-0.09399,-0.93896;
19:36:25.131,-0.35229,-0.08936,-0.93506;
19:36:25.141,-0.35181,-0.07983,-0.93481;
19:36:25.151,-0.35132,-0.08130,-0.93286;
19:36:25.161,-0.35034,-0.08618,-0.93481;
19:36:25.171,-0.35400,-0.08350,-0.93091;
19:36:25.181,-0.35474,-0.08667,-0.92847;
19:36:25.191,-0.35645,-0.08057,-0.92871;
19:36:25.201,-0.35376,-0.07324,-0.92578;
19:36:25.211,-0.35669,-0.07349,-0.92700;
19:36:25.221,-0.35547,-0.08081,-0.93237;
19:36:25.231,-0.35449,-0.08105,-0.93628;
19:36:25.241,-0.35327,-0.08228,-0.93481;
19:36:25.251,-0.34912,-0.08228,-0.93115;
19:36:25.261,-0.34985,-0.08765,-0.93433;
19:36:25.271,-0.34863,-0.09155,-0.93506;
19:36:25.281,-0.34839,-0.09033,-0.93433;
19:36:25.291,-0.35107,-0.08936,-0.93555;
19:36:25.301,-0.35205,-0.09033,-0.93384;
19:36:25.311,-0.35327,-0.08667,-0.93286;
19:36:25.321,-0.35498,-0.08032,-0.93140;
19:36:25.331,-0.35498,-0.08301,-0.93018;
19:36:25.341,-0.35474,-0.08276,-0.93042;
19:36:25.351,-0.35254,-0.08618,-0.93262;
19:36:25.361,-0.35181,-0.08960,-0.93408;
19:36:25.371,-0.35034,-0.09009,-0.93701;
19:36:25.381,-0.35229,-0.08984,-0.93579;
19:36:25.391,-0.35352,-0.08545,-0.93530;
19:36:25.401,-0.35132,-0.08081,-0.93481;
19:36:25.411,-0.35059,-0.08423,-0.93481;
19:36:25.421,-0.35059,-0.08569,-0.93359;
19:36:25.431,-0.35034,-0.08521,-0.93164;
19:36:25.441,-0.35083,-0.09326,-0.93506;
19:36:25.451,-0.35107,-0.09399,-0.93018;
19:36:25.461,-0.35229,-0.08813,-0.93091;
19:36:25.471,-0.35425,-0.07935,-0.93115;
19:36:25.481,-0.35547,-0.08203,-0.93018;
19:36:25.491,-0.35425,-0.08618,-0.93164;
19:36:25.501,-0.35303,-0.08423,-0.93164;
19:36:25.511,-0.35303,-0.08472,-0.93701;
19:36:25.521,-0.35254,-0.08765,-0.93628;
19:36:25.531,-0.35400,-0.08545,-0.93359;
19:36:25.541,-0.35254,-0.08398,-0.93652;
19:36:25.551,-0.35107,-0.08594,-0.93335;
19:36:25.561,-0.35205,-0.08472,-0.93018;
19:36:25.571,-0.35107,-0.08569,-0.93115;
19:36:25.581,-0.35205,-0.08716,-0.93311;
19:36:25.591,-0.35132,-0.08496,-0.93042;
19:36:25.601,-0.35327,-0.08203,-0.92944;
19:36:25.611,-0.35449,-0.08496,-0.93311;
19:36:25.621,-0.35083,-0.08350,-0.93335;
19:36:25.631,-0.35352,-0.07935,-0.93164;
19:36:25.641,-0.35376,-0.08301,-0.92944;
19:36:25.651,-0.35400,-0.08228,-0.92700;
19:36:25.661,-0.35400,-0.08008,-0.93164;
19:36:25.671,-0.35474,-0.08374,-0.93335;
19:36:25.681,-0.35693,-0.08301,-0.92944;
19:36:25.691,-0.35596,-0.07959,-0.92798;
19:36:25.701,-0.35327,-0.08057,-0.92749;
19:36:25.711,-0.35254,-0.08643,-0.93042;
19:36:25.721,-0.35059,-0.09082,-0.92993;
19:36:25.731,-0.34985,-0.08813,-0.93164;
19:36:25.741,-0.35059,-0.08618,-0.93213;
19:36:25.751,-0.34814,-0.08984,-0.93604;
19:36:25.761,-0.34790,-0.08740,-0.93774;
19:36:25.771,-0.34888,-0.08472,-0.93408;
19:36:25.781,-0.34839,-0.08789,-0.93457;
19:36:25.791,-0.35010,-0.08960,-0.93848;
19:36:25.801,-0.35132,-0.08691,-0.93506;
19:36:25.811,-0.34961,-0.08301,-0.93262;
19:36:25.821,-0.35376,-0.08203,-0.93530;
19:36:25.831,-0.35620,-0.08105,-0.93188;
19:36:25.841,-0.35449,-0.08130,-0.93140;
19:36:25.851,-0.35254,-0.08203,-0.92944;
19:36:25.861,-0.35352,-0.08374,-0.92700;
19:36:25.871,-0.35327,-0.07861,-0.92676;
19:36:25.881,-0.35327,-0.07617,-0.92505;
19:36:25.891,-0.35352,-0.07935,-0.92456;
19:36:25.901,-0.35132,-0.08447,-0.93213;
19:36:25.911,-0.35156,-0.08423,-0.93481;
19:36:25.921,-0.35156,-0.08130,-0.92676;
19:36:25.931,-0.35352,-0.07861,-0.92676;
19:36:25.941,-0.35278,-0.07959,-0.93140;
19:36:25.951,-0.34961,-0.08838,-0.93384;
19:36:25.961,-0.35205,-0.08911,-0.93481;
19:36:25.971,-0.35229,-0.08838,-0.93457;
19:36:25.981,-0.35010,-0.09375,-0.93848;
19:36:25.991,-0.34741,-0.09326,-0.93652;
19:36:26.001,-0.34839,-0.08496,-0.93408;
19:36:26.011,-0.34912,-0.08179,-0.93457;
19:36:26.021,-0.35034,-0.08594,-0.93042;
19:36:26.031,-0.35059,-0.08691,-0.93359;
19:36:26.041,-0.34985,-0.08594,-0.93359;
19:36:26.051,-0.35449,-0.09009,-0.93140;
19:36:26.061,-0.35547,-0.08936,-0.92773;
19:36:26.071,-0.35376,-0.08325,-0.92969;
19:36:26.081,-0.35254,-0.07813,-0.92847;
19:36:26.091,-0.35474,-0.08081,-0.92676;
19:36:26.101,-0.35645,-0.08643,-0.93091;
19:36:26.111,-0.35425,-0.09106,-0.93140;
19:36:26.121,-0.35254,-0.08789,-0.93628;
19:36:26.131,-0.35010,-0.09106,-0.93506;
19:36:26.141,-0.35107,-0.09448,-0.93555;
19:36:26.151,-0.34937,-0.09448,-0.93579;
19:36:26.161,-0.34888,-0.09302,-0.93701;
19:36:26.171,-0.34863,-0.08936,-0.93921;
19:36:26.181,-0.35156,-0.08447,-0.93286;
19:36:26.191,-0.35425,-0.08105,-0.92969;
19:36:26.201,-0.35352,-0.07983,-0.92578;
19:36:26.211,-0.35278,-0.08398,-0.92725;
19:36:26.221,-0.35400,-0.08911,-0.93018;
19:36:26.231,-0.35596,-0.08276,-0.92969;
19:36:26.241,-0.35474,-0.07788,-0.92725;
19:36:26.251,-0.35498,-0.08008,-0.92822;
19:36:26.261,-0.35327,-0.08325,-0.93140;
19:36:26.271,-0.35254,-0.08936,-0.93213;
19:36:26.281,-0.35278,-0.09009,-0.93457;
19:36:26.291,-0.34937,-0.09009,-0.93628;
19:36:26.301,-0.34717,-0.09351,-0.93701;
19:36:26.311,-0.34644,-0.09399,-0.93799;
19:36:26.321,-0.34619,-0.09302,-0.93774;
19:36:26.331,-0.34790,-0.09351,-0.93872;
19:36:26.341,-0.34888,-0.09375,-0.93750;
19:36:26.351,-0.34961,-0.08984,-0.93628;
19:36:26.361,-0.35059,-0.08862,-0.93799;
19:36:26.371,-0.35059,-0.08740,-0.93262;
19:36:26.381,-0.35229,-0.08765,-0.93359;
19:36:26.391,-0.35205,-0.08691,-0.93311;
19:36:26.401,-0.35034,-0.08398,-0.93237;
19:36:26.411,-0.35034,-0.08301,-0.93164;
19:36:26.421,-0.35425,-0.08154,-0.92822;
19:36:26.431,-0.35498,-0.08154,-0.93066;
19:36:26.441,-0.35376,-0.08179,-0.92920;
19:36:26.451,-0.35352,-0.08081,-0.92603;
19:36:26.461,-0.35327,-0.08423,-0.92822;
19:36:26.471,-0.35571,-0.08472,-0.93140;
19:36:26.481,-0.35132,-0.08081,-0.92969;
19:36:26.491,-0.35181,-0.08008,-0.93066;
19:36:26.501,-0.35376,-0.08716,-0.93091;
19:36:26.511,-0.35107,-0.08887,-0.93384;
19:36:26.521,-0.35010,-0.08716,-0.93652;
19:36:26.531,-0.34961,-0.09229,-0.93579;
19:36:26.541,-0.35132,-0.08643,-0.93799;
19:36:26.551,-0.34766,-0.09229,-0.93237;
19:36:26.561,-0.34912,-0.08984,-0.93140;
19:36:26.571,-0.34961,-0.08960,-0.93237;
19:36:26.581,-0.35278,-0.08838,-0.93188;
19:36:26.591,-0.35327,-0.08447,-0.93042;
19:36:26.601,-0.35254,-0.08569,-0.92969;
19:36:26.611,-0.35132,-0.09155,-0.93457;
19:36:26.621,-0.35352,-0.08496,-0.93726;
19:36:26.631,-0.35083,-0.09155,-0.93823;
19:36:26.641,-0.35010,-0.09155,-0.93579;
19:36:26.651,-0.34985,-0.09033,-0.93213;
19:36:26.661,-0.34912,-0.09302,-0.93604;
19:36:26.671,-0.34863,-0.09033,-0.93604;
19:36:26.681,-0.35034,-0.08887,-0.93555;
19:36:26.691,-0.35010,-0.09229,-0.93359;
19:36:26.701,-0.35132,-0.09253,-0.93506;
19:36:26.711,-0.35034,-0.08936,-0.93604;
19:36:26.721,-0.34912,-0.09155,-0.93384;
19:36:26.731,-0.35083,-0.09106,-0.93311;
19:36:26.741,-0.34985,-0.08838,-0.93286;
19:36:26.751,-0.35278,-0.08765,-0.93237;
19:36:26.761,-0.35474,-0.08203,-0.92944;
19:36:26.771,-0.35156,-0.08496,-0.93042;
19:36:26.781,-0.35083,-0.09033,-0.93091;
19:36:26.791,-0.35327,-0.08911,-0.92847;
19:36:26.801,-0.35498,-0.08398,-0.93018;
19:36:26.811,-0.35352,-0.08203,-0.93115;
19:36:26.821,-0.35254,-0.08325,-0.92993;
19:36:26.831,-0.35181,-0.08154,-0.92676;
19:36:26.841,-0.35254,-0.08154,-0.92944;
19:36:26.851,-0.35156,-0.08398,-0.93555;
19:36:26.861,-0.34937,-0.08716,-0.93237;
19:36:26.871,-0.34839,-0.09058,-0.93457;
19:36:26.881,-0.34961,-0.08521,-0.93433;
19:36:26.891,-0.35059,-0.08521,-0.93408;
19:36:26.901,-0.34937,-0.09009,-0.93701;
19:36:26.911,-0.35083,-0.09082,-0.93604;
19:36:26.921,-0.35034,-0.09106,-0.93677;
19:36:26.931,-0.34839,-0.09009,-0.93677;
19:36:26.941,-0.34814,-0.09399,-0.93506;
19:36:26.951,-0.34863,-0.09521,-0.93555;
19:36:26.961,-0.34961,-0.09180,-0.93237;
19:36:26.971,-0.35107,-0.09009,-0.93115;
19:36:26.981,-0.34985,-0.08765,-0.93066;
19:36:26.991,-0.35107,-0.08423,-0.92871;
19:36:27.001,-0.35278,-0.08594,-0.92773;
19:36:27.011,-0.35278,-0.08618,-0.92944;
19:36:27.021,-0.35205,-0.08496,-0.93018;
19:36:27.031,-0.35083,-0.08398,-0.92969;
19:36:27.041,-0.35010,-0.08618,-0.93237;
19:36:27.051,-0.35059,-0.09253,-0.93018;
19:36:27.061,-0.35376,-0.08716,-0.92993;
19:36:27.071,-0.35107,-0.08179,-0.92993;
19:36:27.081,-0.35034,-0.08423,-0.93286;
19:36:27.091,-0.35205,-0.08691,-0.93188;
19:36:27.101,-0.35278,-0.08618,-0.93164;
19:36:27.111,-0.35352,-0.08667,-0.93506;
19:36:27.121,-0.35205,-0.09180,-0.93457;
19:36:27.131,-0.35205,-0.09326,-0.93384;
19:36:27.141,-0.35059,-0.09009,-0.93384;
19:36:27.151,-0.35132,-0.09277,-0.93604;
19:36:27.161,-0.34888,-0.09619,-0.93506;
19:36:27.171,-0.34790,-0.09229,-0.93335;
19:36:27.181,-0.35107,-0.08838,-0.93335;
19:36:27.191,-0.35059,-0.08813,-0.93433;
19:36:27.201,-0.35327,-0.09082,-0.93213;
19:36:27.211,-0.35254,-0.09009,-0.93115;
19:36:27.221,-0.35132,-0.08984,-0.92969;
19:36:27.231,-0.35107,-0.09229,-0.93164;
19:36:27.241,-0.35059,-0.09058,-0.93433;
19:36:27.251,-0.35229,-0.09009,-0.93506;
19:36:27.261,-0.35083,-0.08813,-0.93604;
19:36:27.271,-0.34839,-0.08789,-0.93457;
19:36:27.281,-0.34814,-0.09033,-0.93164;
19:36:27.291,-0.34961,-0.09058,-0.93188;
19:36:27.301,-0.35107,-0.09033,-0.93091;
19:36:27.311,-0.34937,-0.08960,-0.93188;
19:36:27.321,-0.34985,-0.08911,-0.93286;
19:36:27.331,-0.35181,-0.08740,-0.93091;
19:36:27.341,-0.35327,-0.08618,-0.93066;
19:36:27.351,-0.35229,-0.08911,-0.93237;
19:36:27.361,-0.35156,-0.08618,-0.93213;
19:36:27.371,-0.35229,-0.08301,-0.92700;
19:36:27.381,-0.35376,-0.08398,-0.93018;
19:36:27.391,-0.35352,-0.08740,-0.93188;
19:36:27.401,-0.35132,-0.09033,-0.93286;
19:36:27.411,-0.35229,-0.08936,-0.93237;
19:36:27.421,-0.34912,-0.08862,-0.92822;
19:36:27.431,-0.34888,-0.08765,-0.93018;
19:36:27.441,-0.35229,-0.08838,-0.93164;
19:36:27.451,-0.35059,-0.08838,-0.93237;
19:36:27.461,-0.34912,-0.08936,-0.93188;
19:36:27.471,-0.34937,-0.09106,-0.93359;
19:36:27.481,-0.34961,-0.08862,-0.93433;
19:36:27.491,-0.35156,-0.08984,-0.93188;
19:36:27.501,-0.35181,-0.09180,-0.93384;
19:36:27.511,-0.35156,-0.08887,-0.93311;
19:36:27.521,-0.35229,-0.08643,-0.93384;
19:36:27.531,-0.35059,-0.09009,-0.93408;
19:36:27.541,-0.35034,-0.08936,-0.93286;
19:36:27.551,-0.35425,-0.08838,-0.92969;
19:36:27.561,-0.35034,-0.09033,-0.92969;
19:36:27.571,-0.35107,-0.09106,-0.93164;
19:36:27.581,-0.35083,-0.08618,-0.93335;
19:36:27.591,-0.35010,-0.08618,-0.93213;
19:36:27.601,-0.35278,-0.08813,-0.93311;
19:36:27.611,-0.34863,-0.08960,-0.93359;
19:36:27.621,-0.34912,-0.08911,-0.93359;
19:36:27.631,-0.35059,-0.08862,-0.93262;
19:36:27.641,-0.34985,-0.08911,-0.93408;
19:36:27.651,-0.35083,-0.08691,-0.93481;
19:36:27.661,-0.35229,-0.08984,-0.93359;
19:36:27.671,-0.34961,-0.09155,-0.93384;
19:36:27.681,-0.34717,-0.08960,-0.93286;
19:36:27.691,-0.35059,-0.08960,-0.93286;
19:36:27.701,-0.35181,-0.09155,-0.93335;
19:36:27.711,-0.35107,-0.08691,-0.93164;
19:36:27.721,-0.35400,-0.08545,-0.93237;
19:36:27.731,-0.35254,-0.09082,-0.93262;
19:36:27.741,-0.35034,-0.08765,-0.93164;
19:36:27.751,-0.35205,-0.08521,-0.93237;
19:36:27.761,-0.35400,-0.08350,-0.93140;
19:36:27.771,-0.35498,-0.08496,-0.93359;
19:36:27.781,-0.35376,-0.08667,-0.93433;
19:36:27.791,-0.35449,-0.08594,-0.93164;
19:36:27.801,-0.35498,-0.08569,-0.93018;
19:36:27.811,-0.35400,-0.08691,-0.93042;
19:36:27.821,-0.35254,-0.08984,-0.93115;
19:36:27.831,-0.35254,-0.08838,-0.93164;
19:36:27.841,-0.35156,-0.08862,-0.93457;
19:36:27.851,-0.35010,-0.08691,-0.93384;
19:36:27.861,-0.34814,-0.09009,-0.93457;
19:36:27.871,-0.34863,-0.09399,-0.93408;
19:36:27.881,-0.35059,-0.09155,-0.93555;
19:36:27.891,-0.34839,-0.08960,-0.93750;
19:36:27.901,-0.35059,-0.08911,-0.93457;
19:36:27.911,-0.35449,-0.08887,-0.93188;
19:36:27.921,-0.35278,-0.08813,-0.93286;
19:36:27.931,-0.35229,-0.09106,-0.93213;
19:36:27.941,-0.35376,-0.09253,-0.92944;
19:36:27.951,-0.35181,-0.08765,-0.92871;
19:36:27.961,-0.35181,-0.08374,-0.93018;
19:36:27.971,-0.34985,-0.08667,-0.93066;
19:36:27.981,-0.35034,-0.09204,-0.93188;
19:36:27.991,-0.35327,-0.08643,-0.93311;
19:36:28.001,-0.35327,-0.08447,-0.93091;
19:36:28.011,-0.35278,-0.08545,-0.93066;
19:36:28.021,-0.35132,-0.08594,-0.93359;
19:36:28.031,-0.35034,-0.09131,-0.93433;
19:36:28.041,-0.35132,-0.09009,-0.93286;
19:36:28.051,-0.34985,-0.08716,-0.93359;
19:36:28.061,-0.35156,-0.08618,-0.93213;
19:36:28.071,-0.35132,-0.08789,-0.93091;
19:36:28.081,-0.35229,-0.08252,-0.93335;
19:36:28.091,-0.35205,-0.08911,-0.93091;
19:36:28.101,-0.35352,-0.08789,-0.93237;
19:36:28.111,-0.35083,-0.09644,-0.93506;
19:36:28.121,-0.35083,-0.09180,-0.93579;
19:36:28.131,-0.35156,-0.08960,-0.93262;
19:36:28.141,-0.34985,-0.09302,-0.93555;
19:36:28.151,-0.34839,-0.09106,-0.93677;
19:36:28.161,-0.34839,-0.08838,-0.93091;
19:36:28.171,-0.34985,-0.08887,-0.93335;
19:36:28.181,-0.35156,-0.09009,-0.93628;
19:36:28.191,-0.35278,-0.08716,-0.93091;
19:36:28.201,-0.35229,-0.08447,-0.93433;
19:36:28.211,-0.35376,-0.08350,-0.93091;
19:36:28.221,-0.35498,-0.08398,-0.92969;
19:36:28.231,-0.35327,-0.08228,-0.92896;
19:36:28.241,-0.35303,-0.08252,-0.92651;
19:36:28.251,-0.35498,-0.08105,-0.92725;
19:36:28.261,-0.35229,-0.08228,-0.92798;
19:36:28.271,-0.35254,-0.08423,-0.92944;
19:36:28.281,-0.35425,-0.08545,-0.92798;
19:36:28.291,-0.35254,-0.08423,-0.93140;
19:36:28.301,-0.35181,-0.08154,-0.93164;
19:36:28.311,-0.34985,-0.08740,-0.93237;
19:36:28.321,-0.35156,-0.08740,-0.93286;
19:36:28.331,-0.35132,-0.08765,-0.93164;
19:36:28.341,-0.35034,-0.08813,-0.93115;
19:36:28.351,-0.35278,-0.08838,-0.93677;
19:36:28.361,-0.35303,-0.09277,-0.93799;
19:36:28.371,-0.35132,-0.09106,-0.93335;
19:36:28.381,-0.35083,-0.09058,-0.93457;
19:36:28.391,-0.35034,-0.08716,-0.93579;
19:36:28.401,-0.35010,-0.08667,-0.93262;
19:36:28.411,-0.35181,-0.09033,-0.93286;
19:36:28.421,-0.35254,-0.08984,-0.93335;
19:36:28.431,-0.35205,-0.08691,-0.93140;
19:36:28.441,-0.35278,-0.08862,-0.93237;
19:36:28.451,-0.35303,-0.08643,-0.93140;
19:36:28.461,-0.35400,-0.08105,-0.93237;
19:36:28.471,-0.35352,-0.08643,-0.93164;
19:36:28.481,-0.35083,-0.08618,-0.92993;
19:36:28.491,-0.35303,-0.08374,-0.93042;
19:36:28.501,-0.35449,-0.08472,-0.92798;
19:36:28.511,-0.35303,-0.08447,-0.93140;
19:36:28.521,-0.35425,-0.08252,-0.93018;
19:36:28.531,-0.35547,-0.08447,-0.93066;
19:36:28.541,-0.35229,-0.08789,-0.93433;
19:36:28.551,-0.35034,-0.08765,-0.93091;
19:36:28.561,-0.35181,-0.08691,-0.93262;
19:36:28.571,-0.35229,-0.08813,-0.93188;
19:36:28.581,-0.35181,-0.08643,-0.93140;
19:36:28.591,-0.35205,-0.08228,-0.93335;
19:36:28.601,-0.35278,-0.08276,-0.93286;
19:36:28.611,-0.35229,-0.08423,-0.93457;
19:36:28.621,-0.35278,-0.08398,-0.93091;
19:36:28.631,-0.35303,-0.08765,-0.92944;
19:36:28.641,-0.35156,-0.08911,-0.93335;
19:36:28.651,-0.35083,-0.08960,-0.92993;
19:36:28.661,-0.35156,-0.09033,-0.93018;
19:36:28.671,-0.35083,-0.08789,-0.93628;
19:36:28.681,-0.35034,-0.08667,-0.93457;
19:36:28.691,-0.35010,-0.08813,-0.93555;
19:36:28.701,-0.35132,-0.08960,-0.93262;
19:36:28.711,-0.35352,-0.08545,-0.92944;
19:36:28.721,-0.35425,-0.08276,-0.93140;
19:36:28.731,-0.35449,-0.08276,-0.92993;
19:36:28.741,-0.35547,-0.08350,-0.93188;
19:36:28.751,-0.35449,-0.08691,-0.93018;
19:36:28.761,-0.35205,-0.08350,-0.92871;
19:36:28.771,-0.35400,-0.08569,-0.93213;
19:36:28.781,-0.35474,-0.08789,-0.92944;
19:36:28.791,-0.35083,-0.08716,-0.92993;
19:36:28.801,-0.35181,-0.08984,-0.93481;
19:36:28.811,-0.35107,-0.08936,-0.93335;
19:36:28.821,-0.34961,-0.09180,-0.93481;
19:36:28.831,-0.34961,-0.09180,-0.93506;
19:36:28.841,-0.34985,-0.08838,-0.93726;
19:36:28.851,-0.35254,-0.08887,-0.93579;
19:36:28.861,-0.35278,-0.08569,-0.93311;
19:36:28.871,-0.35229,-0.08496,-0.93359;
19:36:28.881,-0.35449,-0.08765,-0.93140;
19:36:28.891,-0.35498,-0.08545,-0.93042;
19:36:28.901,-0.35376,-0.08447,-0.93140;
19:36:28.911,-0.35400,-0.08643,-0.92920;
19:36:28.921,-0.35400,-0.08789,-0.92700;
19:36:28.931,-0.35303,-0.08423,-0.93091;
19:36:28.941,-0.35278,-0.08252,-0.93042;
19:36:28.951,-0.35303,-0.08447,-0.92993;
19:36:28.961,-0.35352,-0.08496,-0.93506;
19:36:28.971,-0.35376,-0.08374,-0.93579;
19:36:28.981,-0.35205,-0.08716,-0.93481;
19:36:28.991,-0.35083,-0.08447,-0.93530;
19:36:29.001,-0.35278,-0.08691,-0.93335;
19:36:29.011,-0.35107,-0.08862,-0.93433;
19:36:29.021,-0.35132,-0.08472,-0.93359;
19:36:29.031,-0.35278,-0.08569,-0.93262;
19:36:29.041,-0.35278,-0.08789,-0.93433;
19:36:29.051,-0.35303,-0.08789,-0.93188;
19:36:29.061,-0.35278,-0.08472,-0.93164;
19:36:29.071,-0.35352,-0.08447,-0.93311;
19:36:29.081,-0.35205,-0.08887,-0.93311;
19:36:29.091,-0.35254,-0.08887,-0.93262;
19:36:29.101,-0.35303,-0.08350,-0.93311;
19:36:29.111,-0.35181,-0.08472,-0.93579;
19:36:29.121,-0.35132,-0.08618,-0.93066;
19:36:29.131,-0.35254,-0.08301,-0.93213;
19:36:29.141,-0.35181,-0.08569,-0.93359;
19:36:29.151,-0.35107,-0.08740,-0.93091;
19:36:29.161,-0.35229,-0.08350,-0.93384;
19:36:29.171,-0.35254,-0.08496,-0.93262;
19:36:29.181,-0.35107,-0.08521,-0.93115;
19:36:29.191,-0.34912,-0.08594,-0.93140;
19:36:29.201,-0.35010,-0.08936,-0.93262;
19:36:29.211,-0.35425,-0.08618,-0.93237;
19:36:29.221,-0.34985,-0.08447,-0.93335;
19:36:29.231,-0.35107,-0.08252,-0.93359;
19:36:29.241,-0.35303,-0.08276,-0.93262;
19:36:29.251,-0.35205,-0.08472,-0.93359;
19:36:29.261,-0.35327,-0.08398,-0.93091;
19:36:29.271,-0.34839,-0.08643,-0.93335;
19:36:29.281,-0.35132,-0.08740,-0.93384;
19:36:29.291,-0.35107,-0.08545,-0.93164;
19:36:29.301,-0.35034,-0.08301,-0.92993;
19:36:29.311,-0.35083,-0.08740,-0.92920;
19:36:29.321,-0.34937,-0.08716,-0.93262;
19:36:29.331,-0.34985,-0.08838,-0.93286;
19:36:29.341,-0.34985,-0.08594,-0.93311;
19:36:29.351,-0.35083,-0.08228,-0.93530;
19:36:29.361,-0.35107,-0.08765,-0.93408;
19:36:29.371,-0.35400,-0.08325,-0.93408;
19:36:29.381,-0.35303,-0.08325,-0.93262;
19:36:29.391,-0.35132,-0.08716,-0.93042;
19:36:29.401,-0.35107,-0.08740,-0.93188;
19:36:29.411,-0.35107,-0.08813,-0.93237;
19:36:29.421,-0.35303,-0.08765,-0.93359;
19:36:29.431,-0.35107,-0.08618,-0.93213;
19:36:29.441,-0.35156,-0.08862,-0.93335;
19:36:29.451,-0.35400,-0.08789,-0.93384;
19:36:29.461,-0.35278,-0.08398,-0.93506;
19:36:29.471,-0.35303,-0.08496,-0.93237;
19:36:29.481,-0.35400,-0.08472,-0.93164;
19:36:29.491,-0.35522,-0.08521,-0.92920;
19:36:29.501,-0.35229,-0.08398,-0.92993;
19:36:29.511,-0.35352,-0.08374,-0.93408;
19:36:29.521,-0.35083,-0.08789,-0.93408;
19:36:29.531,-0.34961,-0.08911,-0.93384;
19:36:29.541,-0.34985,-0.09204,-0.93994;
19:36:29.551,-0.35303,-0.08643,-0.93066;
19:36:29.561,-0.35669,-0.08936,-0.93140;
19:36:29.571,-0.35254,-0.08936,-0.93066;
19:36:29.581,-0.35449,-0.08691,-0.93091;
19:36:29.591,-0.35498,-0.08008,-0.93018;
19:36:29.601,-0.35498,-0.08057,-0.92993;
19:36:29.611,-0.35571,-0.08325,-0.93042;
19:36:29.621,-0.35083,-0.08032,-0.93115;
19:36:29.631,-0.35156,-0.08716,-0.93188;
19:36:29.641,-0.35034,-0.08765,-0.93286;
19:36:29.651,-0.34839,-0.08594,-0.93579;
19:36:29.661,-0.35132,-0.08594,-0.93677;
19:36:29.671,-0.35156,-0.08765,-0.93433;
19:36:29.681,-0.35010,-0.08618,-0.93506;
19:36:29.691,-0.35425,-0.08179,-0.93408;
19:36:29.701,-0.35205,-0.08423,-0.93311;
19:36:29.711,-0.35181,-0.08447,-0.93433;
19:36:29.721,-0.35425,-0.08423,-0.93457;
19:36:29.731,-0.35327,-0.08447,-0.93286;
19:36:29.741,-0.35327,-0.08521,-0.93506;
19:36:29.751,-0.35376,-0.08594,-0.93311;
19:36:29.761,-0.35376,-0.08374,-0.93066;
19:36:29.771,-0.35132,-0.08130,-0.92749;
19:36:29.781,-0.35327,-0.08325,-0.92676;
19:36:29.791,-0.35498,-0.08447,-0.92969;
19:36:29.801,-0.35400,-0.08618,-0.93140;
19:36:29.811,-0.35303,-0.08545,-0.93164;
19:36:29.821,-0.35059,-0.08887,-0.93384;
19:36:29.831,-0.35229,-0.08936,-0.93628;
19:36:29.841,-0.35083,-0.08569,-0.93530;
19:36:29.851,-0.34814,-0.08887,-0.93433;
19:36:29.861,-0.34814,-0.08936,-0.93506;
19:36:29.871,-0.35010,-0.08691,-0.93701;
19:36:29.881,-0.35107,-0.08569,-0.93750;
19:36:29.891,-0.35083,-0.08789,-0.93604;
19:36:29.901,-0.35327,-0.08667,-0.93311;
19:36:29.911,-0.35449,-0.08374,-0.93213;
19:36:29.921,-0.35352,-0.08276,-0.93115;
19:36:29.931,-0.35181,-0.08618,-0.93140;
19:36:29.941,-0.35254,-0.08716,-0.92993;
19:36:29.951,-0.35181,-0.08203,-0.93091;
19:36:29.961,-0.35229,-0.08521,-0.93018;
19:36:29.971,-0.35352,-0.08276,-0.92969;
19:36:29.981,-0.35449,-0.07764,-0.93018;
19:36:29.991,-0.35474,-0.08301,-0.93359;
19:36:30.001,-0.35278,-0.08643,-0.93555;
19:36:30.011,-0.35327,-0.08545,-0.93262;
19:36:30.021,-0.35522,-0.08398,-0.93384;
19:36:30.031,-0.35229,-0.08496,-0.93213;
19:36:30.041,-0.35034,-0.08789,-0.93213;
19:36:30.051,-0.35059,-0.08765,-0.93530;
19:36:30.061,-0.34912,-0.08960,-0.93457;
19:36:30.071,-0.34912,-0.09131,-0.93506;
19:36:30.081,-0.35107,-0.08765,-0.93628;
19:36:30.091,-0.35107,-0.08691,-0.93506;
19:36:30.101,-0.35107,-0.08911,-0.93457;
19:36:30.111,-0.35107,-0.08643,-0.93311;
19:36:30.121,-0.35107,-0.08691,-0.93408;
19:36:30.131,-0.35229,-0.08813,-0.93433;
19:36:30.141,-0.35449,-0.08472,-0.93091;
19:36:30.151,-0.35449,-0.07886,-0.92871;
19:36:30.161,-0.35156,-0.07959,-0.92578;
19:36:30.171,-0.35376,-0.08350,-0.92871;
19:36:30.181,-0.35571,-0.08179,-0.93164;
19:36:30.191,-0.35474,-0.08057,-0.92871;
19:36:30.201,-0.35352,-0.08105,-0.92920;
19:36:30.211,-0.35278,-0.08545,-0.93311;
19:36:30.221,-0.35083,-0.08618,-0.93506;
19:36:30.231,-0.35083,-0.08398,-0.93286;
19:36:30.241,-0.35107,-0.09082,-0.93335;
19:36:30.251,-0.34839,-0.09155,-0.93750;
19:36:30.261,-0.34937,-0.08813,-0.93408;
19:36:30.271,-0.35010,-0.08960,-0.93213;
19:36:30.281,-0.35059,-0.08887,-0.93311;
19:36:30.291,-0.35229,-0.08105,-0.93018;
19:36:30.301,-0.35352,-0.08496,-0.92944;
19:36:30.311,-0.35327,-0.08594,-0.93335;
19:36:30.321,-0.35229,-0.08521,-0.92993;
19:36:30.331,-0.35498,-0.08423,-0.92969;
19:36:30.341,-0.35400,-0.08618,-0.93286;
19:36:30.351,-0.35205,-0.08765,-0.93188;
19:36:30.361,-0.35181,-0.08179,-0.93433;
19:36:30.371,-0.34985,-0.08130,-0.93359;
19:36:30.381,-0.34912,-0.08716,-0.93188;
19:36:30.391,-0.35107,-0.08447,-0.93408;
19:36:30.401,-0.35181,-0.08105,-0.93237;
19:36:30.411,-0.35327,-0.08618,-0.93262;
19:36:30.421,-0.35229,-0.08643,-0.93262;
19:36:30.431,-0.35107,-0.08252,-0.93091;
19:36:30.441,-0.35254,-0.08301,-0.93042;
19:36:30.451,-0.35181,-0.08716,-0.93237;
19:36:30.461,-0.35107,-0.08472,-0.93115;
19:36:30.471,-0.35010,-0.08203,-0.92896;
19:36:30.481,-0.35083,-0.08521,-0.93188;
19:36:30.491,-0.35254,-0.08545,-0.93213;
19:36:30.501,-0.35254,-0.08398,-0.93311;
19:36:30.511,-0.35181,-0.08569,-0.93311;
19:36:30.521,-0.35205,-0.08691,-0.93433;
19:36:30.531,-0.35425,-0.08765,-0.93677;
19:36:30.541,-0.35327,-0.08936,-0.93579;
19:36:30.551,-0.34937,-0.08838,-0.93237;
19:36:30.561,-0.35107,-0.08667,-0.93335;
19:36:30.571,-0.35107,-0.08350,-0.93066;
19:36:30.581,-0.35132,-0.08374,-0.93066;
19:36:30.591,-0.35376,-0.08521,-0.93506;
19:36:30.601,-0.35327,-0.08569,-0.93530;
19:36:30.611,-0.35669,-0.08350,-0.92871;
19:36:30.621,-0.35425,-0.08228,-0.92700;
19:36:30.631,-0.35254,-0.08545,-0.93140;
19:36:30.641,-0.35425,-0.08276,-0.93164;
19:36:30.651,-0.35327,-0.07935,-0.93237;
19:36:30.661,-0.35181,-0.08398,-0.93066;
19:36:30.671,-0.35083,-0.08691,-0.93311;
19:36:30.681,-0.35278,-0.08472,-0.93262;
19:36:30.691,-0.35254,-0.08423,-0.93115;
19:36:30.701,-0.35205,-0.08740,-0.93262;
19:36:30.711,-0.35352,-0.08691,-0.93286;
19:36:30.721,-0.35474,-0.08594,-0.93213;
19:36:30.731,-0.35474,-0.08691,-0.93286;
19:36:30.741,-0.35449,-0.08960,-0.93481;
19:36:30.751,-0.35205,-0.08716,-0.93188;
19:36:30.761,-0.35229,-0.08521,-0.93335;
19:36:30.771,-0.35303,-0.08594,-0.93286;
19:36:30.781,-0.35010,-0.08643,-0.92969;
19:36:30.791,-0.35181,-0.08325,-0.93237;
19:36:30.801,-0.35327,-0.08325,-0.93384;
19:36:30.811,-0.35425,-0.08667,-0.93457;
19:36:30.821,-0.35400,-0.08545,-0.93237;
19:36:30.831,-0.35229,-0.08716,-0.93091;
19:36:30.841,-0.35327,-0.08838,-0.93018;
19:36:30.851,-0.35083,-0.08691,-0.93091;
19:36:30.861,-0.35205,-0.08521,-0.93262;
19:36:30.871,-0.35034,-0.08569,-0.93042;
19:36:30.881,-0.35229,-0.08643,-0.93213;
19:36:30.891,-0.35303,-0.08911,-0.93140;
19:36:30.901,-0.35278,-0.08789,-0.93677;
19:36:30.911,-0.34937,-0.09399,-0.93774;
19:36:30.921,-0.34692,-0.08716,-0.93433;
19:36:30.931,-0.35205,-0.08643,-0.93286;
19:36:30.941,-0.35474,-0.08203,-0.93115;
19:36:30.951,-0.35498,-0.08154,-0.93042;
19:36:30.961,-0.35474,-0.08032,-0.92676;
19:36:30.971,-0.35498,-0.07959,-0.92822;
19:36:30.981,-0.35571,-0.08105,-0.93140;
19:36:30.991,-0.35449,-0.08423,-0.93164;
19:36:31.001,-0.35352,-0.08496,-0.93042;
19:36:31.011,-0.35327,-0.08472,-0.93237;
19:36:31.021,-0.35229,-0.08716,-0.93604;
19:36:31.031,-0.35181,-0.08813,-0.93457;
19:36:31.041,-0.35107,-0.08594,-0.93481;
19:36:31.051,-0.35205,-0.08350,-0.93677;
19:36:31.061,-0.35132,-0.08472,-0.93530;
19:36:31.071,-0.35059,-0.08423,-0.93115;
19:36:31.081,-0.35205,-0.08325,-0.93115;
19:36:31.091,-0.35327,-0.08667,-0.93359;
19:36:31.101,-0.35132,-0.08691,-0.92944;
19:36:31.111,-0.35205,-0.08276,-0.93262;
19:36:31.121,-0.35229,-0.08130,-0.93237;
19:36:31.131,-0.35181,-0.07935,-0.93311;
19:36:31.141,-0.35522,-0.07739,-0.92993;
19:36:31.151,-0.35571,-0.07910,-0.92896;
19:36:31.161,-0.35303,-0.08594,-0.93164;
19:36:31.171,-0.35352,-0.08472,-0.92920;
19:36:31.181,-0.35596,-0.07861,-0.92871;
19:36:31.191,-0.35376,-0.08325,-0.92896;
19:36:31.201,-0.35181,-0.08960,-0.93262;
19:36:31.211,-0.35083,-0.09253,-0.93384;
19:36:31.221,-0.35010,-0.09058,-0.93530;
19:36:31.231,-0.35059,-0.08813,-0.93604;
19:36:31.241,-0.34741,-0.08838,-0.93506;
19:36:31.251,-0.34961,-0.08960,-0.93750;
19:36:31.261,-0.34985,-0.09082,-0.93481;
19:36:31.271,-0.35229,-0.08813,-0.93408;
19:36:31.281,-0.35107,-0.08984,-0.93774;
19:36:31.291,-0.35059,-0.09106,-0.93823;
19:36:31.301,-0.35107,-0.08740,-0.93530;
19:36:31.311,-0.35156,-0.08765,-0.93604;
19:36:31.321,-0.35156,-0.08887,-0.93481;
19:36:31.331,-0.35229,-0.08594,-0.93042;
19:36:31.341,-0.35303,-0.08765,-0.93311;
19:36:31.351,-0.35034,-0.08521,-0.92993;
19:36:31.361,-0.35254,-0.08447,-0.92700;
19:36:31.371,-0.35522,-0.08618,-0.93188;
19:36:31.381,-0.35425,-0.08643,-0.93408;
19:36:31.391,-0.35205,-0.08667,-0.93286;
19:36:31.401,-0.35254,-0.08374,-0.93115;
19:36:31.411,-0.35352,-0.08252,-0.93018;
19:36:31.421,-0.35376,-0.07959,-0.93066;
19:36:31.431,-0.35474,-0.08569,-0.92993;
19:36:31.441,-0.35254,-0.09277,-0.93262;
19:36:31.451,-0.35059,-0.08984,-0.93115;
19:36:31.461,-0.35034,-0.08667,-0.93384;
19:36:31.471,-0.35083,-0.09253,-0.93481;
19:36:31.481,-0.35156,-0.09082,-0.93091;
19:36:31.491,-0.35010,-0.08691,-0.93164;
19:36:31.501,-0.35107,-0.08594,-0.93018;
19:36:31.511,-0.35059,-0.08350,-0.93115;
19:36:31.521,-0.35229,-0.08765,-0.93359;
19:36:31.531,-0.35449,-0.09204,-0.93604;
19:36:31.541,-0.35278,-0.09253,-0.93652;
19:36:31.551,-0.35181,-0.08862,-0.93335;
19:36:31.561,-0.35205,-0.08789,-0.93433;
19:36:31.571,-0.35156,-0.09009,-0.93384;
19:36:31.581,-0.35059,-0.08765,-0.92944;
19:36:31.591,-0.35107,-0.08594,-0.93140;
19:36:31.601,-0.35132,-0.08936,-0.92944;
19:36:31.611,-0.35254,-0.09229,-0.93262;
19:36:31.621,-0.35303,-0.09106,-0.93481;
19:36:31.631,-0.35059,-0.09180,-0.93555;
19:36:31.641,-0.35083,-0.09033,-0.93384;
19:36:31.651,-0.35059,-0.08618,-0.93286;
19:36:31.661,-0.35205,-0.08472,-0.93359;
19:36:31.671,-0.35107,-0.08301,-0.93115;
19:36:31.681,-0.34839,-0.08740,-0.93335;
19:36:31.691,-0.35034,-0.08740,-0.93408;
19:36:31.701,-0.35327,-0.08789,-0.93066;
19:36:31.711,-0.35352,-0.08496,-0.92749;
19:36:31.721,-0.35571,-0.08276,-0.93042;
19:36:31.731,-0.35205,-0.08862,-0.93018;
19:36:31.741,-0.35107,-0.08716,-0.92871;
19:36:31.751,-0.35181,-0.09009,-0.92798;
19:36:31.761,-0.34985,-0.08911,-0.92920;
19:36:31.771,-0.35059,-0.08618,-0.93237;
19:36:31.781,-0.35278,-0.08813,-0.93237;
19:36:31.791,-0.35327,-0.08618,-0.93628;
19:36:31.801,-0.35132,-0.08472,-0.93457;
19:36:31.811,-0.35132,-0.08716,-0.93042;
19:36:31.821,-0.35059,-0.09180,-0.93286;
19:36:31.831,-0.35132,-0.09131,-0.93359;
19:36:31.841,-0.35132,-0.09180,-0.93726;
19:36:31.851,-0.35303,-0.09326,-0.93799;
19:36:31.861,-0.35156,-0.09131,-0.93481;
19:36:31.871,-0.35034,-0.08765,-0.93164;
19:36:31.881,-0.35034,-0.08740,-0.93018;
19:36:31.891,-0.35034,-0.09009,-0.92993;
19:36:31.901,-0.35181,-0.08911,-0.93066;
19:36:31.911,-0.35278,-0.08691,-0.93091;
19:36:31.921,-0.35254,-0.08618,-0.92969;
19:36:31.931,-0.35278,-0.08862,-0.93066;
19:36:31.941,-0.35376,-0.08521,-0.93091;
19:36:31.951,-0.35327,-0.08154,-0.93115;
19:36:31.961,-0.35303,-0.08252,-0.93042;
19:36:31.971,-0.35327,-0.08398,-0.93188;
19:36:31.981,-0.35278,-0.09204,-0.93188;
19:36:31.991,-0.35132,-0.09399,-0.93262;
19:36:32.001,-0.35229,-0.09155,-0.93311;
19:36:32.011,-0.34912,-0.09082,-0.93311;
19:36:32.021,-0.35083,-0.08887,-0.93359;
19:36:32.031,-0.35156,-0.08472,-0.93188;
19:36:32.041,-0.34839,-0.08765,-0.93237;
19:36:32.051,-0.35132,-0.08960,-0.93359;
19:36:32.061,-0.35034,-0.08643,-0.93262;
19:36:32.071,-0.35278,-0.08301,-0.93042;
19:36:32.081,-0.35522,-0.08203,-0.93140;
19:36:32.091,-0.35571,-0.08667,-0.92920;
19:36:32.101,-0.35254,-0.08716,-0.92944;
19:36:32.111,-0.35278,-0.08691,-0.93018;
19:36:32.121,-0.35278,-0.08911,-0.93115;
19:36:32.131,-0.34985,-0.08911,-0.93286;
19:36:32.141,-0.35205,-0.08618,-0.92944;
19:36:32.151,-0.34937,-0.08350,-0.93286;
19:36:32.161,-0.34888,-0.08789,-0.93433;
19:36:32.171,-0.34985,-0.08936,-0.93286;
19:36:32.181,-0.35059,-0.08667,-0.93384;
19:36:32.191,-0.35229,-0.08765,-0.93335;
19:36:32.201,-0.35181,-0.08643,-0.93286;
19:36:32.211,-0.35132,-0.09033,-0.93286;
19:36:32.221,-0.35229,-0.08667,-0.93115;
19:36:32.231,-0.35205,-0.08521,-0.93140;
19:36:32.241,-0.35254,-0.08911,-0.93433;
19:36:32.251,-0.35352,-0.08667,-0.93213;
19:36:32.261,-0.35205,-0.08765,-0.93066;
19:36:32.271,-0.35107,-0.08960,-0.93188;
19:36:32.281,-0.34912,-0.09155,-0.93286;
19:36:32.291,-0.34961,-0.08984,-0.93188;
19:36:32.301,-0.34985,-0.09009,-0.93164;
19:36:32.311,-0.35034,-0.09009,-0.93286;
19:36:32.321,-0.34961,-0.08545,-0.93604;
19:36:32.331,-0.35205,-0.08984,-0.93115;
19:36:32.341,-0.35278,-0.09229,-0.93457;
19:36:32.351,-0.35010,-0.08911,-0.93140;
19:36:32.361,-0.35205,-0.08838,-0.93506;
19:36:32.371,-0.34985,-0.08667,-0.93091;
19:36:32.381,-0.34961,-0.09082,-0.93286;
19:36:32.391,-0.35400,-0.08081,-0.93042;
19:36:32.401,-0.35205,-0.08472,-0.93457;
19:36:32.411,-0.35132,-0.08765,-0.93335;
19:36:32.421,-0.34985,-0.08618,-0.92944;
19:36:32.431,-0.35156,-0.08472,-0.93091;
19:36:32.441,-0.35059,-0.08813,-0.92944;
19:36:32.451,-0.35132,-0.09033,-0.93091;
19:36:32.461,-0.35083,-0.09009,-0.93311;
19:36:32.471,-0.34863,-0.08667,-0.93237;
19:36:32.481,-0.35034,-0.08911,-0.93408;
19:36:32.491,-0.35205,-0.09033,-0.93530;
19:36:32.501,-0.35181,-0.08545,-0.93066;
19:36:32.511,-0.35278,-0.08374,-0.92822;
19:36:32.521,-0.35352,-0.08447,-0.92969;
19:36:32.531,-0.35376,-0.08472,-0.92773;
19:36:32.541,-0.35107,-0.08203,-0.92578;
19:36:32.551,-0.35034,-0.08325,-0.92407;
19:36:32.561,-0.35132,-0.08545,-0.92261;
19:36:32.571,-0.35303,-0.07983,-0.92261;
19:36:32.581,-0.35693,-0.08130,-0.92407;
19:36:32.591,-0.35303,-0.08813,-0.93164;
19:36:32.601,-0.34937,-0.09399,-0.93311;
19:36:32.611,-0.34937,-0.09277,-0.93018;
19:36:32.621,-0.34863,-0.08936,-0.93164;
19:36:32.631,-0.34399,-0.09570,-0.93164;
19:36:32.641,-0.34204,-0.10156,-0.93262;
19:36:32.651,-0.34253,-0.10107,-0.93506;
19:36:32.661,-0.34277,-0.10083,-0.93530;
19:36:32.671,-0.34033,-0.10425,-0.93408;
19:36:32.681,-0.34082,-0.10327,-0.93457;
19:36:32.691,-0.34180,-0.10156,-0.93188;
19:36:32.701,-0.34033,-0.10449,-0.93237;
19:36:32.711,-0.33887,-0.10156,-0.93237;
19:36:32.721,-0.34033,-0.10376,-0.93311;
19:36:32.731,-0.34204,-0.10156,-0.93359;
19:36:32.741,-0.34839,-0.08447,-0.94238;
19:36:32.751,-0.35815,-0.07422,-0.94360;
19:36:32.761,-0.33838,-0.10522,-0.92676;
19:36:32.771,-0.32861,-0.13330,-0.93066;
19:36:32.781,-0.33447,-0.12476,-0.94067;
19:36:32.791,-0.33618,-0.11646,-0.93604;
19:36:32.801,-0.33447,-0.11987,-0.93799;
19:36:32.811,-0.33423,-0.12305,-0.94360;
19:36:32.821,-0.33643,-0.11719,-0.94385;
19:36:32.831,-0.33228,-0.11816,-0.94214;
19:36:32.841,-0.33203,-0.12231,-0.93994;
19:36:32.851,-0.33667,-0.12109,-0.94165;
19:36:32.861,-0.33569,-0.11768,-0.93970;
19:36:32.871,-0.33569,-0.11523,-0.93677;
19:36:32.881,-0.33740,-0.11304,-0.93774;
19:36:32.891,-0.33691,-0.11084,-0.93945;
19:36:32.901,-0.33765,-0.11157,-0.93286;
19:36:32.911,-0.33838,-0.11060,-0.93311;
19:36:32.921,-0.34033,-0.10498,-0.93945;
19:36:32.931,-0.33813,-0.10693,-0.93140;
19:36:32.941,-0.34009,-0.10522,-0.92749;
19:36:32.951,-0.34253,-0.10059,-0.93140;
19:36:32.961,-0.34326,-0.10425,-0.92920;
19:36:32.971,-0.34082,-0.10889,-0.92627;
19:36:32.981,-0.34106,-0.11230,-0.92822;
19:36:32.991,-0.34180,-0.11377,-0.93091;
19:36:33.001,-0.34155,-0.11401,-0.92969;
19:36:33.011,-0.34033,-0.11035,-0.93042;
19:36:33.021,-0.33789,-0.11694,-0.93091;
19:36:33.031,-0.33838,-0.12061,-0.92944;
19:36:33.041,-0.33838,-0.11523,-0.93018;
19:36:33.051,-0.34033,-0.11060,-0.93091;
19:36:33.061,-0.33936,-0.11328,-0.93286;
19:36:33.071,-0.33789,-0.11646,-0.92651;
19:36:33.081,-0.34326,-0.11255,-0.92749;
19:36:33.091,-0.34033,-0.10889,-0.92871;
19:36:33.101,-0.33569,-0.11230,-0.93091;
19:36:33.111,-0.33838,-0.12622,-0.93286;
19:36:33.121,-0.33765,-0.11670,-0.93140;
19:36:33.131,-0.34058,-0.10303,-0.92896;
19:36:33.141,-0.34424,-0.10986,-0.93237;
19:36:33.151,-0.34302,-0.11401,-0.93262;
19:36:33.161,-0.34033,-0.11353,-0.93213;
19:36:33.171,-0.33569,-0.11646,-0.93921;
19:36:33.181,-0.33472,-0.11499,-0.93506;
19:36:33.191,-0.33667,-0.11499,-0.93530;
19:36:33.201,-0.33862,-0.11816,-0.93481;
19:36:33.211,-0.33472,-0.11963,-0.93481;
19:36:33.221,-0.33521,-0.12280,-0.93628;
19:36:33.231,-0.33569,-0.11792,-0.93530;
19:36:33.241,-0.33813,-0.11450,-0.93091;
19:36:33.251,-0.34131,-0.11646,-0.93213;
19:36:33.261,-0.33936,-0.11841,-0.93262;
19:36:33.271,-0.33887,-0.11670,-0.93115;
19:36:33.281,-0.34033,-0.11719,-0.92749;
19:36:33.291,-0.34229,-0.11597,-0.92578;
19:36:33.301,-0.34058,-0.11182,-0.92944;
19:36:33.311,-0.34033,-0.11304,-0.92603;
19:36:33.321,-0.33960,-0.11401,-0.92847;
19:36:33.331,-0.33691,-0.11230,-0.93140;
19:36:33.341,-0.33667,-0.10938,-0.92944;
19:36:33.351,-0.33862,-0.11035,-0.92822;
19:36:33.361,-0.33984,-0.11133,-0.93335;
19:36:33.371,-0.33887,-0.11133,-0.93237;
19:36:33.381,-0.33691,-0.11719,-0.92871;
19:36:33.391,-0.33838,-0.12134,-0.92871;
19:36:33.401,-0.33862,-0.11865,-0.93286;
19:36:33.411,-0.33838,-0.11450,-0.93726;
19:36:33.421,-0.33691,-0.11499,-0.93823;
19:36:33.431,-0.33496,-0.11694,-0.93970;
19:36:33.441,-0.33472,-0.11938,-0.93677;
19:36:33.451,-0.33643,-0.11987,-0.93530;
19:36:33.461,-0.33643,-0.11646,-0.93726;
19:36:33.471,-0.33594,-0.11523,-0.93555;
19:36:33.481,-0.33765,-0.11353,-0.93115;
19:36:33.491,-0.34131,-0.11133,-0.92944;
19:36:33.501,-0.34082,-0.11011,-0.93433;
19:36:33.511,-0.34058,-0.11450,-0.93433;
19:36:33.521,-0.34204,-0.11890,-0.93115;
19:36:33.531,-0.34204,-0.11719,-0.93408;
19:36:33.541,-0.34302,-0.11694,-0.93555;
19:36:33.551,-0.33936,-0.11719,-0.93359;
19:36:33.561,-0.33789,-0.11157,-0.93140;
19:36:33.571,-0.33716,-0.10718,-0.92920;
19:36:33.581,-0.33496,-0.10742,-0.92822;
19:36:33.591,-0.33984,-0.11206,-0.92749;
19:36:33.601,-0.34424,-0.11694,-0.92920;
19:36:33.611,-0.34375,-0.11401,-0.93286;
19:36:33.621,-0.34326,-0.11011,-0.93091;
19:36:33.631,-0.34106,-0.10938,-0.92847;
19:36:33.641,-0.34326,-0.10547,-0.92676;
19:36:33.651,-0.34619,-0.09985,-0.92627;
19:36:33.661,-0.35059,-0.10107,-0.92432;
19:36:33.671,-0.35083,-0.10938,-0.92676;
19:36:33.681,-0.34546,-0.11084,-0.93018;
19:36:33.691,-0.34570,-0.11328,-0.93188;
19:36:33.701,-0.34277,-0.11597,-0.93164;
19:36:33.711,-0.34082,-0.10864,-0.93359;
19:36:33.721,-0.33984,-0.10596,-0.93433;
19:36:33.731,-0.34082,-0.10620,-0.94019;
19:36:33.741,-0.34106,-0.10376,-0.94019;
19:36:33.751,-0.34180,-0.10181,-0.93140;
19:36:33.761,-0.34302,-0.11377,-0.93506;
19:36:33.771,-0.34473,-0.11426,-0.93481;
19:36:33.781,-0.34253,-0.09814,-0.92554;
19:36:33.791,-0.34326,-0.09814,-0.92065;
19:36:33.801,-0.34399,-0.10229,-0.92407;
19:36:33.811,-0.35059,-0.10645,-0.92432;
19:36:33.821,-0.35181,-0.10693,-0.93433;
19:36:33.831,-0.34180,-0.10815,-0.93286;
19:36:33.841,-0.34326,-0.10303,-0.93408;
19:36:33.851,-0.34131,-0.10864,-0.93701;
19:36:33.861,-0.33960,-0.11035,-0.93677;
19:36:33.871,-0.34058,-0.10815,-0.93945;
19:36:33.881,-0.34155,-0.10962,-0.94189;
19:36:33.891,-0.33960,-0.11377,-0.94116;
19:36:33.901,-0.34009,-0.11206,-0.93311;
19:36:33.911,-0.34155,-0.10889,-0.93408;
19:36:33.921,-0.33960,-0.11255,-0.93701;
19:36:33.931,-0.34058,-0.11499,-0.93359;
19:36:33.941,-0.34082,-0.11084,-0.92920;
19:36:33.951,-0.34204,-0.10132,-0.92529;
19:36:33.961,-0.34155,-0.10693,-0.92700;
19:36:33.971,-0.34326,-0.11743,-0.92896;
19:36:33.981,-0.34863,-0.11206,-0.93042;
19:36:33.991,-0.34766,-0.10571,-0.92651;
19:36:34.001,-0.34473,-0.10205,-0.92603;
19:36:34.011,-0.34375,-0.10376,-0.92993;
19:36:34.021,-0.34302,-0.10718,-0.92944;
19:36:34.031,-0.34229,-0.10400,-0.93066;
19:36:34.041,-0.34277,-0.10449,-0.93384;
19:36:34.051,-0.34277,-0.10620,-0.93262;
19:36:34.061,-0.34473,-0.10059,-0.93066;
19:36:34.071,-0.34644,-0.09766,-0.92896;
19:36:34.081,-0.34399,-0.10547,-0.93359;
19:36:34.091,-0.34155,-0.10913,-0.93286;
19:36:34.101,-0.34131,-0.10107,-0.92627;
19:36:34.111,-0.34302,-0.10034,-0.92920;
19:36:34.121,-0.34448,-0.10791,-0.93237;
19:36:34.131,-0.34155,-0.10889,-0.92944;
19:36:34.141,-0.34253,-0.10498,-0.92944;
19:36:34.151,-0.34253,-0.10767,-0.93237;
19:36:34.161,-0.34155,-0.11133,-0.93408;
19:36:34.171,-0.34082,-0.10938,-0.93359;
19:36:34.181,-0.34033,-0.11206,-0.93555;
19:36:34.191,-0.33960,-0.11792,-0.93506;
19:36:34.201,-0.33618,-0.11743,-0.93262;
19:36:34.211,-0.33813,-0.11206,-0.93262;
19:36:34.221,-0.33960,-0.11230,-0.93066;
19:36:34.231,-0.33960,-0.11621,-0.93213;
19:36:34.241,-0.33984,-0.11670,-0.93311;
19:36:34.251,-0.33984,-0.11255,-0.93262;
19:36:34.261,-0.34229,-0.11157,-0.93286;
19:36:34.271,-0.34106,-0.11499,-0.93018;
19:36:34.281,-0.34131,-0.11133,-0.93018;
19:36:34.291,-0.34277,-0.10645,-0.92847;
19:36:34.301,-0.34033,-0.10669,-0.92822;
19:36:34.311,-0.34106,-0.10669,-0.92920;
19:36:34.321,-0.34253,-0.11133,-0.93188;
19:36:34.331,-0.34180,-0.11206,-0.93091;
19:36:34.341,-0.34106,-0.10645,-0.92993;
19:36:34.351,-0.34180,-0.10669,-0.93091;
19:36:34.361,-0.34106,-0.10327,-0.92798;
19:36:34.371,-0.34302,-0.09644,-0.93164;
19:36:34.381,-0.34326,-0.11548,-0.93726;
19:36:34.391,-0.34058,-0.12573,-0.93652;
19:36:34.401,-0.34302,-0.10767,-0.93115;
19:36:34.411,-0.34326,-0.10498,-0.92798;
19:36:34.421,-0.34033,-0.10962,-0.93311;
19:36:34.431,-0.33862,-0.11230,-0.93530;
19:36:34.441,-0.34595,-0.10181,-0.92847;
19:36:34.451,-0.34155,-0.10205,-0.93164;
19:36:34.461,-0.33960,-0.11768,-0.93750;
19:36:34.471,-0.33838,-0.11890,-0.93774;
19:36:34.481,-0.34204,-0.10767,-0.93042;
19:36:34.491,-0.34424,-0.10913,-0.93115;
19:36:34.501,-0.34229,-0.11035,-0.93311;
19:36:34.511,-0.34180,-0.10913,-0.92871;
19:36:34.521,-0.34253,-0.10669,-0.92456;
19:36:34.531,-0.34375,-0.10791,-0.92773;
19:36:34.541,-0.34619,-0.09961,-0.92896;
19:36:34.551,-0.34717,-0.09546,-0.92700;
19:36:34.561,-0.34717,-0.10547,-0.93213;
19:36:34.571,-0.34546,-0.10742,-0.93506;
19:36:34.581,-0.34521,-0.10889,-0.93311;
19:36:34.591,-0.34448,-0.11108,-0.93652;
19:36:34.601,-0.34204,-0.11108,-0.94019;
19:36:34.611,-0.34253,-0.11108,-0.93823;
19:36:34.621,-0.33936,-0.11011,-0.93750;
19:36:34.631,-0.34375,-0.10791,-0.93213;
19:36:34.641,-0.34473,-0.10645,-0.93457;
19:36:34.651,-0.34229,-0.10938,-0.93994;
19:36:34.661,-0.34375,-0.11035,-0.93457;
19:36:34.671,-0.34424,-0.11255,-0.93213;
19:36:34.681,-0.34668,-0.10889,-0.93823;
19:36:34.691,-0.34692,-0.10107,-0.93555;
19:36:34.701,-0.35181,-0.09814,-0.93018;
19:36:34.711,-0.35059,-0.09717,-0.93433;
19:36:34.721,-0.34668,-0.09692,-0.93311;
19:36:34.731,-0.35107,-0.09399,-0.93164;
19:36:34.741,-0.35474,-0.09082,-0.92822;
19:36:34.751,-0.35791,-0.08179,-0.92505;
19:36:34.761,-0.36377,-0.08081,-0.92822;
19:36:34.771,-0.36060,-0.08691,-0.93091;
19:36:34.781,-0.35938,-0.09473,-0.92969;
19:36:34.791,-0.35913,-0.09497,-0.92480;
19:36:34.801,-0.36011,-0.09009,-0.92847;
19:36:34.811,-0.36353,-0.09204,-0.92822;
19:36:34.821,-0.36133,-0.08911,-0.92261;
19:36:34.831,-0.35962,-0.08667,-0.92578;
19:36:34.841,-0.36182,-0.08081,-0.92383;
19:36:34.851,-0.36353,-0.07471,-0.91992;
19:36:34.861,-0.36621,-0.07495,-0.91626;
19:36:34.871,-0.36987,-0.07837,-0.91748;
19:36:34.881,-0.36816,-0.07861,-0.92041;
19:36:34.891,-0.36768,-0.07617,-0.92139;
19:36:34.901,-0.36865,-0.07642,-0.92017;
19:36:34.911,-0.36792,-0.07300,-0.92407;
19:36:34.921,-0.36572,-0.07568,-0.92505;
19:36:34.931,-0.36572,-0.07983,-0.92676;
19:36:34.941,-0.36255,-0.08154,-0.92847;
19:36:34.951,-0.36133,-0.07959,-0.92773;
19:36:34.961,-0.36133,-0.08618,-0.93506;
19:36:34.971,-0.35815,-0.09326,-0.93628;
19:36:34.981,-0.35571,-0.09277,-0.93726;
19:36:34.991,-0.36035,-0.09229,-0.93726;
19:36:35.001,-0.36011,-0.09570,-0.93628;
19:36:35.011,-0.35742,-0.10205,-0.93555;
19:36:35.021,-0.35962,-0.09668,-0.93237;
19:36:35.031,-0.35864,-0.08423,-0.92871;
19:36:35.041,-0.36304,-0.07739,-0.92554;
19:36:35.051,-0.36230,-0.07935,-0.92603;
19:36:35.061,-0.36499,-0.08057,-0.92456;
19:36:35.071,-0.36963,-0.07837,-0.92554;
19:36:35.081,-0.36865,-0.07642,-0.93091;
19:36:35.091,-0.36914,-0.07568,-0.92725;
19:36:35.101,-0.36426,-0.08154,-0.92334;
19:36:35.111,-0.37207,-0.09058,-0.92773;
19:36:35.121,-0.36304,-0.09473,-0.92505;
19:36:35.131,-0.36182,-0.09277,-0.92603;
19:36:35.141,-0.36523,-0.08301,-0.92944;
19:36:35.151,-0.36426,-0.08545,-0.92847;
19:36:35.161,-0.36792,-0.08057,-0.92383;
19:36:35.171,-0.36890,-0.08521,-0.92041;
19:36:35.181,-0.36865,-0.08423,-0.91699;
19:36:35.191,-0.36792,-0.06958,-0.92114;
19:36:35.201,-0.37012,-0.06201,-0.92139;
19:36:35.211,-0.37231,-0.06689,-0.92139;
19:36:35.221,-0.37158,-0.07373,-0.92212;
19:36:35.231,-0.37012,-0.07739,-0.92407;
19:36:35.241,-0.36963,-0.07886,-0.92407;
19:36:35.251,-0.36914,-0.09009,-0.93115;
19:36:35.261,-0.36450,-0.08569,-0.94067;
19:36:35.271,-0.35938,-0.07861,-0.93750;
19:36:35.281,-0.35986,-0.08496,-0.93555;
19:36:35.291,-0.35791,-0.09131,-0.93555;
19:36:35.301,-0.35962,-0.09180,-0.93506;
19:36:35.311,-0.36182,-0.08936,-0.93555;
19:36:35.321,-0.36206,-0.08521,-0.93286;
19:36:35.331,-0.36523,-0.07837,-0.93701;
19:36:35.341,-0.36255,-0.07446,-0.93921;
19:36:35.351,-0.36108,-0.07007,-0.93750;
19:36:35.361,-0.36450,-0.07568,-0.93237;
19:36:35.371,-0.36865,-0.07593,-0.91992;
19:36:35.381,-0.37012,-0.07446,-0.92944;
19:36:35.391,-0.36694,-0.07373,-0.93726;
19:36:35.401,-0.36597,-0.07349,-0.93262;
19:36:35.411,-0.37231,-0.08057,-0.92773;
19:36:35.421,-0.37231,-0.07642,-0.92627;
19:36:35.431,-0.36963,-0.06982,-0.92773;
19:36:35.441,-0.37134,-0.07275,-0.92065;
19:36:35.451,-0.37402,-0.08423,-0.91602;
19:36:35.461,-0.37329,-0.07617,-0.91577;
19:36:35.471,-0.37622,-0.07275,-0.92407;
19:36:35.481,-0.37402,-0.08789,-0.92383;
19:36:35.491,-0.37012,-0.08154,-0.92383;
19:36:35.501,-0.37207,-0.07178,-0.92725;
19:36:35.511,-0.36841,-0.06836,-0.92603;
19:36:35.521,-0.36792,-0.07104,-0.93066;
19:36:35.531,-0.37036,-0.08130,-0.93213;
19:36:35.541,-0.37061,-0.07910,-0.92798;
19:36:35.551,-0.37012,-0.06982,-0.92847;
19:36:35.561,-0.37427,-0.07446,-0.92773;
19:36:35.571,-0.37476,-0.07568,-0.92334;
19:36:35.581,-0.37354,-0.06616,-0.92432;
19:36:35.591,-0.37598,-0.07446,-0.92676;
19:36:35.601,-0.37378,-0.09033,-0.92212;
19:36:35.611,-0.37402,-0.08032,-0.92432;
19:36:35.621,-0.37500,-0.06958,-0.93286;
19:36:35.631,-0.37622,-0.07129,-0.92822;
19:36:35.641,-0.37427,-0.06641,-0.92505;
19:36:35.651,-0.37524,-0.06128,-0.92383;
19:36:35.661,-0.37891,-0.06665,-0.92285;
19:36:35.671,-0.37793,-0.07373,-0.92236;
19:36:35.681,-0.37769,-0.07129,-0.92114;
19:36:35.691,-0.37695,-0.06787,-0.91992;
19:36:35.701,-0.37866,-0.06543,-0.92041;
19:36:35.711,-0.37891,-0.06812,-0.92310;
19:36:35.721,-0.37988,-0.07178,-0.92627;
19:36:35.731,-0.37915,-0.07202,-0.92749;
19:36:35.741,-0.37769,-0.06836,-0.92285;
19:36:35.751,-0.37646,-0.06787,-0.92896;
19:36:35.761,-0.37744,-0.07129,-0.93433;
19:36:35.771,-0.37720,-0.06567,-0.92822;
19:36:35.781,-0.38037,-0.06372,-0.91968;
19:36:35.791,-0.38184,-0.06787,-0.91626;
19:36:35.801,-0.37988,-0.06250,-0.91846;
19:36:35.811,-0.38086,-0.05518,-0.92188;
19:36:35.821,-0.37964,-0.05103,-0.91919;
19:36:35.831,-0.38257,-0.05151,-0.91187;
19:36:35.841,-0.38428,-0.06250,-0.91748;
19:36:35.851,-0.38403,-0.07080,-0.92090;
19:36:35.861,-0.38159,-0.06348,-0.91162;
19:36:35.871,-0.38135,-0.05371,-0.91479;
19:36:35.881,-0.38354,-0.05981,-0.92261;
19:36:35.891,-0.38208,-0.06616,-0.91626;
19:36:35.901,-0.38159,-0.06079,-0.91504;
19:36:35.911,-0.38208,-0.06055,-0.91675;
19:36:35.921,-0.38379,-0.06274,-0.91553;
19:36:35.931,-0.38306,-0.06128,-0.91479;
19:36:35.941,-0.38232,-0.05908,-0.91772;
19:36:35.951,-0.38135,-0.05957,-0.92041;
19:36:35.961,-0.38013,-0.06860,-0.92554;
19:36:35.971,-0.38159,-0.07251,-0.92944;
19:36:35.981,-0.38062,-0.06787,-0.92456;
19:36:35.991,-0.37891,-0.06177,-0.92065;
19:36:36.001,-0.37695,-0.06519,-0.92383;
19:36:36.011,-0.37695,-0.06738,-0.92578;
19:36:36.021,-0.37915,-0.06567,-0.92651;
19:36:36.031,-0.37842,-0.06519,-0.92603;
19:36:36.041,-0.37671,-0.07349,-0.92798;
19:36:36.051,-0.37622,-0.07959,-0.93213;
19:36:36.061,-0.37524,-0.07324,-0.93213;
19:36:36.071,-0.37500,-0.06885,-0.92749;
19:36:36.081,-0.37720,-0.06665,-0.92627;
19:36:36.091,-0.37695,-0.06860,-0.92847;
19:36:36.101,-0.37842,-0.07397,-0.92871;
19:36:36.111,-0.37964,-0.07593,-0.92871;
19:36:36.121,-0.37915,-0.07080,-0.92554;
19:36:36.131,-0.38037,-0.06519,-0.92236;
19:36:36.141,-0.37964,-0.05664,-0.92358;
19:36:36.151,-0.37939,-0.05811,-0.92163;
19:36:36.161,-0.38062,-0.06299,-0.91846;
19:36:36.171,-0.38232,-0.05859,-0.91821;
19:36:36.181,-0.38330,-0.05762,-0.91992;
19:36:36.191,-0.38135,-0.05835,-0.92554;
19:36:36.201,-0.38135,-0.06323,-0.92627;
19:36:36.211,-0.38037,-0.06689,-0.92529;
19:36:36.221,-0.37866,-0.05786,-0.92456;
19:36:36.231,-0.37646,-0.05737,-0.92407;
19:36:36.241,-0.37891,-0.06641,-0.92603;
19:36:36.251,-0.37866,-0.06299,-0.92529;
19:36:36.261,-0.37720,-0.06201,-0.92114;
19:36:36.271,-0.37915,-0.06494,-0.92480;
19:36:36.281,-0.37866,-0.06714,-0.92139;
19:36:36.291,-0.38306,-0.06519,-0.92017;
19:36:36.301,-0.38208,-0.06079,-0.92139;
19:36:36.311,-0.37939,-0.06299,-0.92212;
19:36:36.321,-0.37988,-0.06641,-0.92529;
19:36:36.331,-0.37939,-0.06616,-0.92456;
19:36:36.341,-0.38013,-0.07007,-0.92969;
19:36:36.351,-0.37524,-0.07202,-0.93140;
19:36:36.361,-0.37158,-0.06689,-0.93335;
19:36:36.371,-0.37476,-0.06787,-0.93481;
19:36:36.381,-0.37549,-0.06543,-0.92725;
19:36:36.391,-0.37524,-0.05933,-0.92749;
19:36:36.401,-0.37793,-0.07471,-0.93823;
19:36:36.411,-0.37695,-0.08228,-0.93384;
19:36:36.421,-0.37622,-0.06787,-0.92676;
19:36:36.431,-0.38086,-0.05396,-0.92651;
19:36:36.441,-0.38037,-0.07520,-0.92920;
19:36:36.451,-0.37866,-0.07324,-0.92578;
19:36:36.461,-0.37842,-0.06274,-0.92065;
19:36:36.471,-0.38086,-0.05957,-0.92139;
19:36:36.481,-0.38330,-0.06274,-0.92212;
19:36:36.491,-0.38086,-0.06177,-0.91968;
19:36:36.501,-0.38110,-0.07227,-0.92529;
19:36:36.511,-0.38281,-0.07764,-0.92285;
19:36:36.521,-0.37891,-0.09985,-0.93286;
19:36:36.531,-0.37891,-0.10767,-0.93799;
19:36:36.541,-0.37744,-0.08423,-0.93677;
19:36:36.551,-0.37573,-0.06494,-0.94678;
19:36:36.561,-0.38257,-0.04712,-0.93091;
19:36:36.571,-0.38721,-0.03662,-0.92822;
19:36:36.581,-0.38940,-0.04443,-0.92212;
19:36:36.591,-0.39429,-0.04761,-0.92065;
19:36:36.601,-0.39600,-0.04565,-0.90991;
19:36:36.611,-0.39673,-0.03589,-0.91650;
19:36:36.621,-0.39673,-0.02222,-0.92310;
19:36:36.631,-0.40479,-0.05981,-0.89575;
19:36:36.641,-0.40259,-0.05420,-0.89966;
19:36:36.651,-0.40112,-0.03076,-0.90771;
19:36:36.661,-0.40112,-0.04248,-0.89966;
19:36:36.671,-0.39697,-0.04077,-0.90503;
19:36:36.681,-0.40112,-0.02710,-0.90942;
19:36:36.691,-0.40332,-0.03467,-0.90649;
19:36:36.701,-0.40356,-0.03979,-0.90308;
19:36:36.711,-0.40112,-0.03003,-0.90356;
19:36:36.721,-0.40503,-0.03394,-0.91113;
19:36:36.731,-0.40186,-0.03345,-0.91943;
19:36:36.741,-0.39893,-0.02832,-0.91357;
19:36:36.751,-0.40430,-0.02368,-0.91284;
19:36:36.761,-0.40576,-0.03613,-0.91577;
19:36:36.771,-0.40308,-0.05127,-0.91211;
19:36:36.781,-0.39868,-0.04492,-0.91455;
19:36:36.791,-0.40088,-0.02905,-0.91895;
19:36:36.801,-0.40112,-0.02661,-0.92090;
19:36:36.811,-0.39795,-0.03418,-0.91968;
19:36:36.821,-0.39624,-0.03711,-0.91846;
19:36:36.831,-0.39966,-0.04175,-0.91650;
19:36:36.841,-0.40405,-0.03784,-0.91211;
19:36:36.851,-0.40527,-0.03198,-0.90967;
19:36:36.861,-0.40967,-0.03516,-0.91260;
19:36:36.871,-0.41138,-0.03174,-0.91357;
19:36:36.881,-0.41211,-0.02417,-0.91113;
19:36:36.891,-0.40894,-0.02466,-0.90674;
19:36:36.901,-0.40771,-0.01733,-0.90137;
19:36:36.911,-0.40967,-0.01147,-0.90381;
19:36:36.921,-0.41235,-0.02832,-0.90747;
19:36:36.931,-0.40918,-0.03418,-0.90771;
19:36:36.941,-0.40796,-0.01758,-0.90430;
19:36:36.951,-0.40991,-0.01685,-0.90527;
19:36:36.961,-0.40649,-0.02490,-0.90991;
19:36:36.971,-0.40845,-0.01855,-0.90576;
19:36:36.981,-0.41040,-0.01489,-0.90601;
19:36:36.991,-0.40942,-0.01880,-0.91162;
19:36:37.001,-0.40771,-0.02441,-0.91064;
19:36:37.011,-0.40771,-0.02856,-0.90649;
19:36:37.021,-0.40820,-0.02783,-0.90601;
19:36:37.031,-0.40479,-0.03052,-0.90430;
19:36:37.041,-0.40161,-0.03271,-0.91040;
19:36:37.051,-0.40283,-0.03223,-0.91626;
19:36:37.061,-0.40234,-0.03052,-0.91333;
19:36:37.071,-0.40479,-0.02930,-0.91650;
19:36:37.081,-0.40356,-0.03394,-0.92212;
19:36:37.091,-0.40161,-0.04468,-0.92358;
19:36:37.101,-0.40088,-0.04272,-0.92041;
19:36:37.111,-0.40015,-0.04053,-0.92236;
19:36:37.121,-0.40137,-0.05005,-0.92578;
19:36:37.131,-0.39990,-0.05859,-0.92725;
19:36:37.141,-0.39648,-0.05225,-0.92505;
19:36:37.151,-0.39771,-0.04419,-0.92480;
19:36:37.161,-0.39673,-0.04712,-0.92529;
19:36:37.171,-0.39404,-0.04541,-0.92139;
19:36:37.181,-0.39575,-0.03540,-0.91577;
19:36:37.191,-0.39697,-0.03809,-0.91431;
19:36:37.201,-0.39893,-0.04907,-0.91528;
19:36:37.211,-0.39795,-0.05005,-0.91138;
19:36:37.221,-0.39795,-0.03906,-0.91211;
19:36:37.231,-0.40039,-0.03345,-0.91357;
19:36:37.241,-0.39966,-0.03345,-0.91504;
19:36:37.251,-0.40234,-0.02344,-0.91333;
19:36:37.261,-0.40576,-0.01587,-0.92212;
19:36:37.271,-0.40210,-0.02002,-0.91309;
19:36:37.281,-0.39917,-0.02881,-0.90552;
19:36:37.291,-0.40405,-0.02954,-0.91748;
19:36:37.301,-0.40088,-0.01953,-0.91162;
19:36:37.311,-0.40039,-0.01099,-0.90454;
19:36:37.321,-0.40234,-0.02124,-0.90527;
19:36:37.331,-0.39746,-0.03711,-0.90552;
19:36:37.341,-0.39819,-0.03760,-0.90723;
19:36:37.351,-0.39819,-0.03857,-0.91406;
19:36:37.361,-0.39600,-0.05249,-0.91821;
19:36:37.371,-0.39404,-0.05688,-0.91943;
19:36:37.381,-0.39063,-0.05127,-0.91919;
19:36:37.391,-0.38843,-0.04663,-0.92651;
19:36:37.401,-0.39014,-0.04419,-0.92529;
19:36:37.411,-0.39282,-0.03418,-0.92456;
19:36:37.421,-0.39746,-0.04248,-0.92944;
19:36:37.431,-0.39673,-0.06641,-0.93701;
19:36:37.441,-0.39307,-0.06934,-0.94263;
19:36:37.451,-0.38721,-0.06055,-0.94165;
19:36:37.461,-0.38501,-0.05420,-0.94556;
19:36:37.471,-0.38867,-0.04395,-0.93994;
19:36:37.481,-0.38745,-0.04761,-0.93311;
19:36:37.491,-0.38672,-0.05713,-0.93384;
19:36:37.501,-0.38794,-0.04590,-0.93140;
19:36:37.511,-0.38843,-0.04004,-0.92896;
19:36:37.521,-0.39136,-0.04761,-0.93140;
19:36:37.531,-0.39893,-0.02026,-0.94360;
19:36:37.541,-0.39209,-0.01514,-0.92993;
19:36:37.551,-0.39111,-0.03906,-0.91626;
19:36:37.561,-0.39746,-0.03516,-0.91113;
19:36:37.571,-0.39746,-0.03076,-0.90552;
19:36:37.581,-0.39990,-0.02979,-0.91260;
19:36:37.591,-0.39819,-0.03564,-0.90771;
19:36:37.601,-0.39795,-0.03613,-0.90381;
19:36:37.611,-0.40039,-0.02661,-0.90601;
19:36:37.621,-0.40381,-0.02222,-0.90283;
19:36:37.631,-0.40430,-0.02832,-0.89868;
19:36:37.641,-0.40210,-0.02759,-0.89990;
19:36:37.651,-0.40356,-0.02148,-0.90161;
19:36:37.661,-0.40430,-0.02832,-0.90723;
19:36:37.671,-0.40430,-0.03564,-0.91016;
19:36:37.681,-0.40576,-0.02515,-0.90991;
19:36:37.691,-0.40356,-0.02417,-0.91431;
19:36:37.701,-0.40381,-0.03076,-0.91626;
19:36:37.711,-0.40063,-0.02881,-0.91309;
19:36:37.721,-0.40039,-0.03101,-0.91528;
19:36:37.731,-0.39746,-0.03442,-0.91943;
19:36:37.741,-0.39673,-0.03687,-0.92383;
19:36:37.751,-0.39575,-0.04224,-0.92676;
19:36:37.761,-0.39209,-0.04004,-0.93164;
19:36:37.771,-0.39453,-0.03394,-0.93506;
19:36:37.781,-0.39478,-0.03809,-0.93213;
19:36:37.791,-0.39478,-0.03638,-0.92993;
19:36:37.801,-0.39453,-0.02954,-0.92871;
19:36:37.811,-0.39648,-0.03296,-0.92944;
19:36:37.821,-0.39526,-0.03394,-0.92310;
19:36:37.831,-0.39966,-0.03174,-0.91846;
19:36:37.841,-0.40356,-0.03491,-0.92041;
19:36:37.851,-0.40015,-0.03271,-0.92017;
19:36:37.861,-0.39990,-0.02173,-0.91797;
19:36:37.871,-0.40308,-0.01050,-0.91602;
19:36:37.881,-0.40454,-0.00854,-0.92505;
19:36:37.891,-0.39917,-0.03540,-0.91113;
19:36:37.901,-0.39868,-0.04028,-0.90063;
19:36:37.911,-0.40430,-0.01880,-0.90771;
19:36:37.921,-0.40771,-0.02588,-0.90942;
19:36:37.931,-0.40747,-0.03076,-0.91040;
19:36:37.941,-0.40649,-0.02637,-0.90820;
19:36:37.951,-0.40625,-0.02710,-0.91089;
19:36:37.961,-0.40283,-0.02539,-0.91699;
19:36:37.971,-0.40186,-0.02759,-0.92041;
19:36:37.981,-0.40137,-0.02295,-0.92896;
19:36:37.991,-0.40308,-0.02588,-0.92920;
19:36:38.001,-0.39648,-0.03125,-0.91772;
19:36:38.011,-0.40186,-0.03906,-0.91064;
19:36:38.021,-0.40137,-0.03394,-0.91479;
19:36:38.031,-0.40796,-0.01489,-0.91260;
19:36:38.041,-0.41309,-0.01563,-0.91162;
19:36:38.051,-0.41040,-0.01880,-0.91382;
19:36:38.061,-0.40796,-0.02393,-0.91455;
19:36:38.071,-0.40747,-0.02197,-0.91479;
19:36:38.081,-0.40674,-0.02173,-0.91724;
19:36:38.091,-0.40698,-0.02539,-0.92163;
19:36:38.101,-0.40405,-0.02246,-0.91895;
19:36:38.111,-0.40186,-0.02319,-0.92065;
19:36:38.121,-0.40332,-0.02661,-0.92065;
19:36:38.131,-0.40479,-0.02612,-0.92017;
19:36:38.141,-0.40430,-0.03003,-0.92188;
19:36:38.151,-0.40039,-0.03809,-0.92041;
19:36:38.161,-0.39990,-0.03662,-0.91992;
19:36:38.171,-0.40210,-0.02515,-0.92041;
19:36:38.181,-0.40283,-0.02393,-0.92017;
19:36:38.191,-0.40625,-0.02881,-0.91895;
19:36:38.201,-0.40527,-0.02588,-0.91797;
19:36:38.211,-0.40625,-0.02222,-0.91357;
19:36:38.221,-0.40479,-0.02710,-0.91943;
19:36:38.231,-0.40454,-0.01953,-0.91699;
19:36:38.241,-0.40967,-0.01782,-0.91235;
19:36:38.251,-0.41016,-0.02930,-0.91333;
19:36:38.261,-0.40991,-0.02710,-0.91455;
19:36:38.271,-0.40942,-0.02100,-0.91699;
19:36:38.281,-0.40649,-0.02002,-0.91797;
19:36:38.291,-0.40454,-0.02051,-0.92041;
19:36:38.301,-0.40723,-0.02026,-0.91577;
19:36:38.311,-0.40649,-0.02295,-0.91870;
19:36:38.321,-0.40381,-0.02856,-0.92065;
19:36:38.331,-0.40112,-0.02368,-0.91846;
19:36:38.341,-0.40210,-0.02271,-0.92114;
19:36:38.351,-0.40479,-0.02808,-0.92090;
19:36:38.361,-0.40552,-0.02979,-0.91919;
19:36:38.371,-0.40601,-0.03247,-0.91895;
19:36:38.381,-0.40430,-0.02344,-0.92285;
19:36:38.391,-0.40405,-0.01660,-0.92480;
19:36:38.401,-0.40405,-0.02173,-0.91504;
19:36:38.411,-0.40845,-0.02100,-0.91553;
19:36:38.421,-0.41138,-0.01685,-0.92065;
19:36:38.431,-0.40771,-0.01855,-0.91479;
19:36:38.441,-0.40625,-0.01709,-0.91431;
19:36:38.451,-0.40527,-0.01782,-0.91724;
19:36:38.461,-0.40723,-0.02075,-0.91333;
19:36:38.471,-0.40820,-0.01514,-0.91040;
19:36:38.481,-0.41162,-0.00464,-0.90234;
19:36:38.491,-0.41699,-0.00488,-0.90015;
19:36:38.501,-0.41431,-0.01392,-0.90698;
19:36:38.511,-0.41528,-0.01611,-0.90747;
19:36:38.521,-0.41064,-0.01953,-0.90601;
19:36:38.531,-0.40894,-0.02271,-0.90649;
19:36:38.541,-0.41040,-0.01855,-0.90747;
19:36:38.551,-0.40918,-0.01343,-0.90918;
19:36:38.561,-0.40845,-0.01880,-0.91357;
19:36:38.571,-0.39551,-0.02832,-0.93555;
19:36:38.581,-0.39502,-0.03174,-0.92725;
19:36:38.591,-0.39868,-0.03369,-0.92871;
19:36:38.601,-0.39844,-0.03003,-0.92700;
19:36:38.611,-0.40186,-0.02905,-0.91675;
19:36:38.621,-0.40967,-0.02173,-0.91846;
19:36:38.631,-0.40649,-0.02124,-0.91919;
19:36:38.641,-0.40503,-0.02393,-0.91626;
19:36:38.651,-0.40527,-0.02466,-0.91772;
19:36:38.661,-0.40088,-0.02881,-0.92188;
19:36:38.671,-0.39526,-0.02466,-0.92114;
19:36:38.681,-0.40210,-0.02319,-0.91406;
19:36:38.691,-0.41040,-0.02100,-0.90723;
19:36:38.701,-0.40747,-0.02197,-0.90723;
19:36:38.711,-0.41211,-0.01611,-0.91479;
19:36:38.721,-0.41113,-0.01831,-0.91382;
19:36:38.731,-0.40381,-0.02319,-0.91406;
19:36:38.741,-0.40869,-0.02051,-0.91748;
19:36:38.751,-0.40820,-0.01611,-0.91309;
19:36:38.761,-0.40015,-0.02661,-0.91333;
19:36:38.771,-0.40454,-0.02612,-0.91602;
19:36:38.781,-0.40942,-0.01685,-0.91089;
19:36:38.791,-0.41626,-0.01831,-0.91309;
19:36:38.801,-0.41113,-0.01709,-0.91797;
19:36:38.811,-0.40674,-0.02173,-0.91479;
19:36:38.821,-0.40991,-0.02588,-0.91797;
19:36:38.831,-0.40137,-0.02734,-0.91724;
19:36:38.841,-0.40820,-0.02637,-0.91455;
19:36:38.851,-0.40991,-0.02686,-0.91333;
19:36:38.861,-0.40601,-0.03296,-0.91455;
19:36:38.871,-0.40454,-0.03223,-0.91968;
19:36:38.881,-0.40503,-0.03223,-0.91479;
19:36:38.891,-0.40918,-0.03198,-0.91113;
19:36:38.901,-0.40649,-0.02661,-0.91504;
19:36:38.911,-0.40625,-0.02539,-0.91675;
19:36:38.921,-0.40820,-0.01733,-0.91309;
19:36:38.931,-0.40723,-0.02026,-0.91504;
19:36:38.941,-0.40967,-0.02368,-0.92065;
19:36:38.951,-0.41089,-0.01636,-0.91479;
19:36:38.961,-0.40332,-0.02173,-0.91504;
19:36:38.971,-0.40454,-0.02808,-0.92114;
19:36:38.981,-0.40698,-0.02881,-0.91821;
19:36:38.991,-0.40625,-0.02271,-0.91431;
19:36:39.001,-0.40625,-0.01978,-0.91675;
19:36:39.011,-0.40796,-0.02271,-0.91797;
19:36:39.021,-0.40918,-0.02124,-0.91577;
19:36:39.031,-0.40186,-0.02930,-0.91553;
19:36:39.041,-0.40063,-0.03662,-0.91870;
19:36:39.051,-0.40015,-0.03735,-0.92163;
19:36:39.061,-0.40454,-0.03467,-0.91626;
19:36:39.071,-0.40967,-0.02710,-0.92041;
19:36:39.081,-0.40576,-0.02759,-0.91968;
19:36:39.091,-0.40356,-0.02905,-0.91699;
19:36:39.101,-0.40479,-0.02832,-0.91895;
19:36:39.111,-0.40601,-0.02759,-0.92065;
19:36:39.121,-0.40356,-0.02783,-0.92212;
19:36:39.131,-0.40161,-0.02710,-0.92456;
19:36:39.141,-0.40186,-0.02490,-0.92090;
19:36:39.151,-0.40332,-0.02759,-0.91382;
19:36:39.161,-0.40576,-0.02832,-0.91943;
19:36:39.171,-0.40430,-0.02759,-0.91797;
19:36:39.181,-0.40625,-0.02612,-0.91211;
19:36:39.191,-0.40845,-0.02710,-0.91528;
19:36:39.201,-0.40625,-0.02637,-0.91992;
19:36:39.211,-0.40552,-0.02954,-0.92090;
19:36:39.221,-0.40820,-0.03369,-0.91772;
19:36:39.231,-0.40894,-0.02832,-0.91309;
19:36:39.241,-0.40747,-0.02832,-0.91260;
19:36:39.251,-0.40601,-0.03149,-0.91431;
19:36:39.261,-0.40649,-0.02734,-0.91138;
19:36:39.271,-0.40747,-0.00635,-0.91235;
19:36:39.281,-0.41211,-0.02271,-0.90820;
19:36:39.291,-0.40454,-0.03564,-0.91431;
19:36:39.301,-0.40356,-0.02441,-0.91895;
19:36:39.311,-0.40356,-0.02197,-0.91650;
19:36:39.321,-0.40381,-0.02197,-0.92065;
19:36:39.331,-0.40625,-0.03369,-0.91528;
19:36:39.341,-0.40601,-0.02930,-0.91797;
19:36:39.351,-0.40845,-0.03369,-0.91699;
19:36:39.361,-0.40112,-0.04126,-0.91895;
19:36:39.371,-0.40625,-0.03662,-0.92871;
19:36:39.381,-0.40601,-0.03638,-0.92480;
19:36:39.391,-0.40356,-0.03613,-0.91724;
19:36:39.401,-0.40894,-0.03442,-0.91895;
19:36:39.411,-0.40674,-0.02783,-0.91577;
19:36:39.421,-0.40186,-0.05151,-0.90820;
19:36:39.431,-0.40991,-0.03369,-0.91406;
19:36:39.441,-0.40479,-0.04858,-0.90747;
19:36:39.451,-0.40430,-0.04053,-0.90747;
19:36:39.461,-0.40039,-0.05225,-0.90479;
19:36:39.471,-0.40918,-0.04028,-0.90527;
19:36:39.481,-0.40552,-0.05762,-0.90771;
19:36:39.491,-0.40161,-0.05176,-0.90479;
19:36:39.501,-0.40308,-0.05103,-0.91113;
19:36:39.511,-0.40405,-0.05127,-0.91797;
19:36:39.521,-0.40356,-0.03931,-0.91260;
19:36:39.531,-0.41064,-0.03369,-0.91333;
19:36:39.541,-0.40723,-0.04224,-0.91479;
19:36:39.551,-0.40430,-0.05078,-0.91309;
19:36:39.561,-0.40381,-0.05469,-0.91431;
19:36:39.571,-0.40576,-0.04663,-0.91895;
19:36:39.581,-0.40918,-0.04102,-0.91577;
19:36:39.591,-0.40430,-0.04810,-0.91235;
19:36:39.601,-0.40601,-0.05151,-0.91455;
19:36:39.611,-0.40649,-0.04443,-0.91187;
19:36:39.621,-0.40552,-0.04590,-0.90723;
19:36:39.631,-0.40405,-0.05371,-0.90845;
19:36:39.641,-0.40454,-0.04932,-0.90967;
19:36:39.651,-0.40454,-0.04590,-0.91455;
19:36:39.661,-0.40527,-0.04272,-0.91919;
19:36:39.671,-0.40161,-0.04492,-0.91333;
19:36:39.681,-0.40918,-0.04517,-0.91699;
19:36:39.691,-0.40356,-0.04175,-0.91602;
19:36:39.701,-0.40356,-0.05298,-0.92041;
19:36:39.711,-0.40308,-0.04956,-0.91846;
19:36:39.721,-0.40259,-0.03687,-0.91406;
19:36:39.731,-0.40649,-0.04004,-0.91113;
19:36:39.741,-0.40308,-0.04932,-0.91357;
19:36:39.751,-0.40820,-0.05103,-0.91650;
19:36:39.761,-0.40576,-0.04614,-0.91089;
19:36:39.771,-0.40430,-0.04346,-0.91162;
19:36:39.781,-0.40259,-0.04907,-0.90991;
19:36:39.791,-0.40234,-0.04639,-0.90918;
19:36:39.801,-0.40503,-0.03540,-0.91309;
19:36:39.811,-0.40405,-0.04053,-0.91211;
19:36:39.821,-0.40601,-0.04614,-0.91040;
19:36:39.831,-0.40771,-0.04346,-0.91040;
19:36:39.841,-0.40845,-0.04053,-0.90796;
19:36:39.851,-0.40845,-0.03931,-0.90991;
19:36:39.861,-0.40894,-0.04077,-0.91260;
19:36:39.871,-0.40723,-0.04224,-0.91162;
19:36:39.881,-0.40601,-0.04004,-0.91650;
19:36:39.891,-0.40576,-0.04150,-0.91357;
19:36:39.901,-0.40601,-0.04370,-0.91089;
19:36:39.911,-0.40527,-0.04834,-0.91406;
19:36:39.921,-0.40234,-0.05225,-0.91235;
19:36:39.931,-0.40405,-0.05005,-0.91187;
19:36:39.941,-0.40308,-0.04590,-0.91211;
19:36:39.951,-0.40161,-0.03833,-0.91748;
19:36:39.961,-0.40430,-0.02881,-0.91821;
19:36:39.971,-0.40796,-0.03491,-0.91772;
19:36:39.981,-0.40796,-0.04834,-0.91919;
19:36:39.991,-0.40210,-0.04248,-0.91553;
19:36:40.001,-0.40186,-0.03394,-0.91577;
19:36:40.011,-0.41162,-0.03589,-0.91357;
19:36:40.021,-0.40723,-0.03516,-0.90942;
19:36:40.031,-0.40405,-0.03979,-0.91284;
19:36:40.041,-0.40625,-0.05420,-0.91870;
19:36:40.051,-0.40430,-0.05298,-0.91235;
19:36:40.061,-0.40576,-0.03711,-0.91064;
19:36:40.071,-0.41138,-0.03613,-0.91382;
19:36:40.081,-0.40747,-0.04297,-0.90967;
19:36:40.091,-0.40454,-0.03442,-0.90771;
19:36:40.101,-0.41162,-0.03003,-0.91016;
19:36:40.111,-0.40771,-0.04297,-0.91699;
19:36:40.121,-0.40552,-0.04956,-0.91650;
19:36:40.131,-0.40698,-0.04248,-0.91748;
19:36:40.141,-0.40625,-0.03467,-0.92236;
19:36:40.151,-0.40308,-0.03052,-0.92114;
19:36:40.161,-0.40771,-0.02393,-0.92310;
19:36:40.171,-0.40967,-0.02222,-0.91992;
19:36:40.181,-0.41284,-0.02197,-0.92358;
19:36:40.191,-0.41772,-0.02661,-0.93359;
19:36:40.201,-0.41016,-0.03662,-0.92407;
19:36:40.211,-0.40894,-0.03320,-0.91968;
19:36:40.221,-0.40967,-0.03223,-0.92554;
19:36:40.231,-0.40967,-0.03491,-0.92285;
19:36:40.241,-0.41309,-0.03052,-0.92358;
19:36:40.251,-0.41504,-0.02051,-0.91870;
19:36:40.261,-0.44214,0.00049,-0.90894;
19:36:40.271,-0.41504,-0.01416,-0.92529;
19:36:40.281,-0.40332,-0.02979,-0.92773;
19:36:40.291,-0.41284,-0.03052,-0.90698;
19:36:40.301,-0.41382,-0.04761,-0.89136;
19:36:40.311,-0.42407,-0.03027,-0.89600;
19:36:40.321,-0.45630,-0.00635,-0.88281;
19:36:40.331,-0.40405,-0.00098,-0.90601;
19:36:40.341,-0.33032,-0.03735,-0.92212;
19:36:40.351,-0.45288,-0.03833,-0.88843;
19:36:40.361,-0.48169,0.02856,-0.90381;
19:36:40.371,-0.41138,-0.00537,-0.93018;
19:36:40.381,-0.41479,-0.06689,-0.92114;
19:36:40.391,-0.41943,-0.06323,-0.91650;
19:36:40.401,-0.41968,-0.02173,-0.92847;
19:36:40.411,-0.43115,0.02710,-0.90771;
19:36:40.421,-0.45508,0.07520,-0.89429;
19:36:40.431,-0.46069,0.11035,-0.89331;
19:36:40.441,-0.46069,0.09106,-0.89697;
19:36:40.451,-0.47534,0.02295,-0.91699;
19:36:40.461,-0.48877,-0.04956,-0.94800;
19:36:40.471,-0.45776,-0.10791,-0.97998;
19:36:40.481,-0.48462,-0.00708,-0.90942;
19:36:40.491,-0.50220,0.07251,-0.85132;
19:36:40.501,-0.52588,-0.01074,-0.95679;
19:36:40.511,-0.51514,-0.00464,-1.00024;
19:36:40.521,-0.46631,0.01831,-0.97021;
19:36:40.531,-0.48608,0.00781,-0.94702;
19:36:40.541,-0.47876,-0.01538,-0.92334;
19:36:40.551,-0.49731,-0.07617,-0.92993;
19:36:40.561,-0.50122,-0.07788,-0.93408;
19:36:40.571,-0.47681,-0.03491,-0.92139;
19:36:40.581,-0.47559,-0.08154,-0.91602;
19:36:40.591,-0.52515,-0.14282,-0.94971;
19:36:40.601,-0.49731,-0.13306,-0.96387;
19:36:40.611,-0.45288,-0.11987,-0.94458;
19:36:40.621,-0.46460,-0.08398,-0.94385;
19:36:40.631,-0.45435,-0.04810,-0.88477;
19:36:40.641,-0.47290,-0.05542,-0.82104;
19:36:40.651,-0.44434,0.03857,-0.75146;
19:36:40.661,-0.45190,0.09912,-0.75293;
19:36:40.671,-0.46680,0.15747,-0.79712;
19:36:40.681,-0.47217,0.21582,-0.79590;
19:36:40.691,-0.48730,0.19482,-0.78955;
19:36:40.701,-0.51294,0.13696,-0.77759;
19:36:40.711,-0.52295,0.10352,-0.75488;
19:36:40.721,-0.54639,0.08105,-0.75073;
19:36:40.731,-0.56885,0.12573,-0.77490;
19:36:40.741,-0.61255,0.16211,-0.79150;
19:36:40.751,-0.62695,0.15918,-0.79370;
19:36:40.761,-0.58936,0.13721,-0.76709;
19:36:40.771,-0.57813,0.11011,-0.72681;
19:36:40.781,-0.54419,0.11963,-0.69019;
19:36:40.791,-0.51685,0.09399,-0.67480;
19:36:40.801,-0.51196,0.06274,-0.71338;
19:36:40.811,-0.48657,0.07031,-0.72607;
19:36:40.821,-0.48682,0.09229,-0.74292;
19:36:40.831,-0.51001,0.09326,-0.79175;
19:36:40.841,-0.52832,0.10425,-0.81396;
19:36:40.851,-0.55713,0.10718,-0.83960;
19:36:40.861,-0.55298,0.09155,-0.88818;
19:36:40.871,-0.54102,0.08521,-0.88623;
19:36:40.881,-0.55298,0.07129,-0.85791;
19:36:40.891,-0.54443,0.03809,-0.85181;
19:36:40.901,-0.55322,0.02441,-0.87793;
19:36:40.911,-0.57056,0.03662,-0.87866;
19:36:40.921,-0.57227,0.04077,-0.88281;
19:36:40.931,-0.56714,0.03662,-0.90698;
19:36:40.941,-0.50781,0.04565,-0.88916;
19:36:40.951,-0.49072,0.09521,-0.87329;
19:36:40.961,-0.51538,0.07935,-0.88062;
19:36:40.971,-0.55811,0.08301,-0.87817;
19:36:40.981,-0.56348,0.01929,-0.89502;
19:36:40.991,-0.56641,-0.02783,-0.91504;
19:36:41.001,-0.56934,0.05029,-0.97656;
19:36:41.011,-0.56128,0.07544,-0.87744;
19:36:41.021,-0.54883,0.08643,-0.66187;
19:36:41.031,-0.57178,0.10742,-0.60449;
19:36:41.041,-0.59717,0.12207,-0.56836;
19:36:41.051,-0.62231,0.11597,-0.52710;
19:36:41.061,-0.67651,0.06641,-0.57397;
19:36:41.071,-0.72021,0.01538,-0.69067;
19:36:41.081,-0.74243,0.05859,-0.76563;
19:36:41.091,-0.77197,0.28613,-0.82227;
19:36:41.101,-0.76978,0.28271,-0.82300;
19:36:41.111,-0.75244,0.20361,-0.82031;
19:36:41.121,-0.72510,0.17969,-0.80322;
19:36:41.131,-0.71973,0.22632,-0.81738;
19:36:41.141,-0.71899,0.24585,-0.83521;
19:36:41.151,-0.69067,0.27881,-0.84131;
19:36:41.161,-0.65601,0.34351,-0.82861;
19:36:41.171,-0.61670,0.37354,-0.77173;
19:36:41.181,-0.60229,0.34595,-0.72949;
19:36:41.191,-0.63672,0.41724,-0.65527;
19:36:41.201,-0.64331,0.48730,-0.58594;
19:36:41.211,-0.66309,0.49805,-0.53809;
19:36:41.221,-0.65210,0.48486,-0.59888;
19:36:41.231,-0.60181,0.53125,-0.53613;
19:36:41.241,-0.61279,0.50610,-0.48657;
19:36:41.251,-0.53784,0.45142,-0.33789;
19:36:41.261,-0.59351,0.47485,-0.43677;
19:36:41.271,-0.58911,0.42529,-0.53467;
19:36:41.281,-0.54761,0.46338,-0.55859;
19:36:41.291,-0.60547,0.48633,-0.64722;
19:36:41.301,-0.57690,0.53613,-0.55103;
19:36:41.311,-0.64282,0.47021,-0.66577;
19:36:41.321,-0.60376,0.35669,-0.82300;
19:36:41.331,-0.65186,0.52539,-0.76953;
19:36:41.341,-0.70313,0.49023,-0.78174;
19:36:41.351,-0.68091,0.49219,-0.59546;
19:36:41.361,-0.70728,0.49292,-0.54077;
19:36:41.371,-0.75659,0.50342,-0.45679;
19:36:41.381,-0.81152,0.49487,-0.36816;
19:36:41.391,-0.88354,0.58936,-0.48584;
19:36:41.401,-0.77979,0.53809,-0.33911;
19:36:41.411,-0.82373,0.57935,-0.32104;
19:36:41.421,-0.81030,0.72534,-0.38867;
19:36:41.431,-0.76416,0.73193,-0.29761;
19:36:41.441,-0.76978,0.72388,-0.23315;
19:36:41.451,-0.75562,0.73633,-0.18774;
19:36:41.461,-0.74634,0.66870,-0.12598;
19:36:41.471,-0.74561,0.50024,-0.16187;
19:36:41.481,-0.76855,0.32202,-0.29102;
19:36:41.491,-0.74292,0.14795,-0.44019;
19:36:41.501,-0.60522,-0.05615,-0.72705;
19:36:41.511,-0.37036,-0.03345,-0.79468;
19:36:41.521,-0.32788,0.44629,-0.46582;
19:36:41.531,-0.50635,0.94556,-0.51514;
19:36:41.541,-0.39600,0.92529,-0.44458;
19:36:41.551,-0.44873,0.63159,-0.26611;
19:36:41.561,-0.53174,0.30591,-0.33960;
19:36:41.571,-0.50464,0.18555,-0.44775;
19:36:41.581,-0.47144,0.20068,-0.44946;
19:36:41.591,-0.50854,0.29785,-0.45996;
19:36:41.601,-0.51660,0.32886,-0.41675;
19:36:41.611,-0.52856,0.28564,-0.35669;
19:36:41.621,-0.51294,0.17749,-0.33398;
19:36:41.631,-0.50659,0.08057,-0.33423;
19:36:41.641,-0.53101,-0.03076,-0.31421;
19:36:41.651,-0.61255,0.08008,-0.30469;
19:36:41.661,-1.27441,1.56494,-1.55420;
19:36:41.671,-1.54492,1.35205,-0.05078;
19:36:41.681,-1.20483,-0.28979,0.74097;
19:36:41.691,-1.13110,-1.23657,0.50928;
19:36:41.701,-0.87451,-0.56885,0.25073;
19:36:41.711,-1.28247,0.63135,-0.27197;
19:36:41.721,-1.08130,1.00439,-0.65112;
19:36:41.731,-0.68677,0.72388,-0.64502;
19:36:41.741,-0.44263,0.33105,-0.61963;
19:36:41.751,-0.51050,0.13818,-0.55884;
19:36:41.761,-0.68018,0.16748,-0.39307;
19:36:41.771,-0.86548,0.31177,-0.17603;
19:36:41.781,-0.99756,0.41748,-0.00439;
19:36:41.791,-1.05054,0.81714,0.44458;
19:36:41.801,-0.96436,0.72412,0.27246;
19:36:41.811,-0.95581,0.54956,0.01611;
19:36:41.821,-0.96362,0.35742,-0.19580;
19:36:41.831,-0.90430,0.21802,-0.22412;
19:36:41.841,-0.86182,0.18701,-0.10767;
19:36:41.851,-0.89819,0.27710,0.02368;
19:36:41.861,-0.95435,0.41772,0.13843;
19:36:41.871,-1.00122,0.48804,0.17554;
19:36:41.881,-1.02588,0.25244,0.00317;
19:36:41.891,-1.01245,0.29785,0.07275;
19:36:41.901,-1.00220,0.36938,0.10498;
19:36:41.911,-0.96680,0.28076,0.05444;
19:36:41.921,-0.89990,0.09863,0.08667;
19:36:41.931,-0.97681,0.03979,0.05298;
19:36:41.941,-1.04150,0.07544,-0.07593;
19:36:41.951,-0.98730,0.01172,-0.08398;
19:36:41.961,-0.98169,0.01416,0.03003;
19:36:41.971,-1.00000,0.08325,0.12524;
19:36:41.981,-1.00635,0.02148,0.13354;
19:36:41.991,-0.97949,-0.04810,0.06934;
19:36:42.001,-0.96680,-0.10425,-0.01611;
19:36:42.011,-0.97705,-0.11279,-0.01245;
19:36:42.021,-0.98389,-0.10059,0.01904;
19:36:42.031,-0.96362,-0.21509,0.03760;
19:36:42.041,-0.96729,-0.25293,-0.00146;
19:36:42.051,-0.97339,-0.19775,-0.08521;
19:36:42.061,-0.96631,-0.17920,-0.05713;
19:36:42.071,-1.00220,-0.14917,-0.00488;
19:36:42.081,-1.00464,-0.17358,0.00073;
19:36:42.091,-0.99072,-0.23608,-0.03369;
19:36:42.101,-0.97949,-0.22656,-0.02686;
19:36:42.111,-0.99390,-0.19507,-0.00586;
19:36:42.121,-1.01050,-0.20581,-0.01807;
19:36:42.131,-1.00024,-0.18726,0.00122;
19:36:42.141,-1.01880,-0.13623,0.04980;
19:36:42.151,-0.97339,-0.15161,0.02734;
19:36:42.161,-0.97754,-0.16528,0.02197;
19:36:42.171,-1.00293,-0.20605,0.01245;
19:36:42.181,-0.96167,-0.21924,0.03784;
19:36:42.191,-1.00708,-0.19238,0.05005;
19:36:42.201,-1.02563,-0.15698,0.02124;
19:36:42.211,-1.00195,-0.11792,0.04370;
19:36:42.221,-1.03809,-0.10132,0.11523;
19:36:42.231,-1.05737,-0.11353,0.15381;
19:36:42.241,-1.00269,-0.13940,0.06372;
19:36:42.251,-0.99780,-0.08252,0.07690;
19:36:42.261,-1.03296,-0.03516,0.06885;
19:36:42.271,-1.05396,-0.05713,0.05347;
19:36:42.281,-1.07129,-0.09424,0.11597;
19:36:42.291,-1.09448,-0.08252,0.16528;
19:36:42.301,-1.09619,-0.06836,0.12866;
19:36:42.311,-1.02417,-0.05444,0.09570;
19:36:42.321,-1.00537,-0.03516,0.07886;
19:36:42.331,-1.01587,-0.06177,0.04712;
19:36:42.341,-0.95190,-0.14941,-0.01465;
19:36:42.351,-0.90088,-0.23535,-0.09473;
19:36:42.361,-0.89819,-0.19800,-0.12378;
19:36:42.371,-0.98706,-0.03076,-0.11328;
19:36:42.381,-0.98071,-0.17383,-0.12695;
19:36:42.391,-0.90283,-0.04565,-0.07642;
19:36:42.401,-0.97925,-0.16089,-0.10400;
19:36:42.411,-0.83911,-0.24805,-0.21411;
19:36:42.421,-0.87134,-0.19653,-0.34204;
19:36:42.431,-0.90576,-0.13745,-0.31714;
19:36:42.441,-0.97827,-0.16431,-0.11426;
19:36:42.451,-1.13452,-0.04883,0.15063;
19:36:42.461,-1.05542,-0.16211,0.02344;
19:36:42.471,-1.23242,-0.01367,0.04150;
19:36:42.481,-1.14404,0.01074,0.16797;
19:36:42.491,-1.00635,-0.11401,0.01489;
19:36:42.501,-0.98950,-0.11157,-0.17480;
19:36:42.511,-1.00806,-0.18896,-0.12207;
19:36:42.521,-0.99951,-0.10986,-0.35693;
19:36:42.531,-0.97266,-0.10571,-0.44702;
19:36:42.541,-0.89038,-0.14307,-0.48730;
19:36:42.551,-0.80127,-0.29688,-0.48706;
19:36:42.561,-0.74585,-0.41479,-0.44531;
19:36:42.571,-0.71802,-0.43188,-0.38965;
19:36:42.581,-0.71558,-0.42065,-0.37720;
19:36:42.591,-0.73413,-0.36377,-0.41797;
19:36:42.601,-0.76929,-0.25610,-0.44141;
19:36:42.611,-0.84521,-0.19946,-0.37183;
19:36:42.621,-0.95874,-0.22363,-0.25903;
19:36:42.631,-1.07373,-0.29053,-0.11328;
19:36:42.641,-1.22412,-0.27832,-0.14868;
19:36:42.651,-1.24878,-0.23413,-0.18286;
19:36:42.661,-1.30859,-0.19800,-0.26465;
19:36:42.671,-1.36841,-0.17163,-0.34741;
19:36:42.681,-1.56104,-0.08496,-0.26611;
19:36:42.691,-1.68188,0.01343,-0.11548;
19:36:42.701,-1.23364,-0.62769,0.18579;
19:36:42.711,-0.66699,-1.78149,0.48340;
19:36:42.721,-0.29150,-2.18506,0.45386;
19:36:42.731,-0.33838,-1.76172,0.01978;
19:36:42.741,-0.22290,-1.65918,-0.14722;
19:36:42.751,-0.28955,-1.90796,0.39014;
19:36:42.761,-0.74854,-1.69092,0.37061;
19:36:42.771,-0.62720,-1.51538,-0.06689;
19:36:42.781,-0.57300,-1.29419,-0.32104;
19:36:42.791,-0.57739,-0.74829,-0.48389;
19:36:42.801,-0.50317,-0.40356,-0.43750;
19:36:42.811,-0.53662,-0.27710,-0.26147;
19:36:42.821,-0.61865,-0.01074,0.19629;
19:36:42.831,-0.62280,0.07544,0.16138;
19:36:42.841,-0.58057,0.29663,-0.05859;
19:36:42.851,-0.47656,0.73120,-0.27856;
19:36:42.861,-0.13037,0.82495,-0.46875;
19:36:42.871,-0.41797,1.25220,-0.52124;
19:36:42.881,-2.23462,2.33496,-0.59326;
19:36:42.891,-2.58496,-1.52930,-0.65308;
19:36:42.901,-2.34766,-2.85571,-0.49194;
19:36:42.911,-2.58496,0.13159,-0.39380;
19:36:42.921,-2.14673,0.43408,-0.19580;
19:36:42.931,-1.87183,-0.85522,0.18506;
19:36:42.941,-1.76123,-0.96484,0.48193;
19:36:42.951,-1.41602,-0.77368,0.47559;
19:36:42.961,-1.24707,-0.63135,0.37476;
19:36:42.971,-0.88721,-0.51953,0.18066;
19:36:42.981,-0.57690,-0.51123,0.10815;
19:36:42.991,-0.26172,-0.68140,0.14087;
19:36:43.001,-0.07202,-0.78516,0.20020;
19:36:43.011,0.03809,-0.70166,0.21533;
19:36:43.021,0.05981,-0.60498,0.16235;
19:36:43.031,-0.02832,-0.63721,0.10815;
19:36:43.041,-0.23145,-0.67212,0.08350;
19:36:43.051,-0.46582,-0.68164,0.01953;
19:36:43.061,-0.69067,-0.64990,-0.07300;
19:36:43.071,-0.86841,-0.60522,-0.14331;
19:36:43.081,-1.12158,-0.57300,-0.13892;
19:36:43.091,-1.18213,-0.59375,-0.04492;
19:36:43.101,-1.16870,-0.61768,0.11279;
19:36:43.111,-1.12085,-0.66797,0.28491;
19:36:43.121,-1.05444,-0.70972,0.38672;
19:36:43.131,-0.99097,-0.64673,0.41284;
19:36:43.141,-0.87622,-0.61816,0.42773;
19:36:43.151,-0.73682,-0.64160,0.40259;
19:36:43.161,-0.59790,-0.64893,0.32275;
19:36:43.171,-0.49316,-0.65210,0.20117;
19:36:43.181,-0.46167,-0.61743,0.08325;
19:36:43.191,-0.46289,-0.60938,0.02881;
19:36:43.201,-0.50073,-0.64038,0.05518;
19:36:43.211,-0.57202,-0.65771,0.10571;
19:36:43.221,-0.68335,-0.64648,0.13843;
19:36:43.231,-0.85693,-0.66602,0.17456;
19:36:43.241,-0.91089,-0.67480,0.15405;
19:36:43.251,-0.86597,-0.66260,0.11670;
19:36:43.261,-0.82129,-0.68359,0.08789;
19:36:43.271,-0.79443,-0.66162,0.07495;
19:36:43.281,-0.75952,-0.64233,0.07715;
19:36:43.291,-0.74365,-0.66138,0.06616;
19:36:43.301,-0.70776,-0.63306,0.02441;
19:36:43.311,-0.64307,-0.61377,0.02319;
19:36:43.321,-0.61768,-0.62036,0.09570;
19:36:43.331,-0.63403,-0.62622,0.17188;
19:36:43.341,-0.67041,-0.63867,0.20654;
19:36:43.351,-0.71265,-0.64453,0.20459;
19:36:43.361,-0.74023,-0.63916,0.17944;
19:36:43.371,-0.76001,-0.64551,0.14966;
19:36:43.381,-0.79199,-0.65137,0.11328;
19:36:43.391,-0.83594,-0.64600,0.08154;
19:36:43.401,-0.86255,-0.63232,0.07617;
19:36:43.411,-0.90259,-0.63721,0.12476;
19:36:43.421,-0.91138,-0.62646,0.14819;
19:36:43.431,-0.87598,-0.65747,0.19165;
19:36:43.441,-0.82300,-0.67725,0.22510;
19:36:43.451,-0.75830,-0.66504,0.21680;
19:36:43.461,-0.71436,-0.65796,0.18677;
19:36:43.471,-0.70117,-0.66113,0.16113;
19:36:43.481,-0.69360,-0.62671,0.13257;
19:36:43.491,-0.67432,-0.61743,0.12769;
19:36:43.501,-0.67871,-0.65039,0.14868;
19:36:43.511,-0.70776,-0.65283,0.16846;
19:36:43.521,-0.74292,-0.63745,0.19043;
19:36:43.531,-0.75195,-0.66064,0.25171;
19:36:43.541,-0.75854,-0.64722,0.24268;
19:36:43.551,-0.76587,-0.64014,0.21021;
19:36:43.561,-0.77417,-0.65918,0.17432;
19:36:43.571,-0.76440,-0.64966,0.13525;
19:36:43.581,-0.75781,-0.63770,0.12305;
19:36:43.591,-0.76025,-0.64893,0.13428;
19:36:43.601,-0.74683,-0.64966,0.14673;
19:36:43.611,-0.71631,-0.64111,0.15796;
19:36:43.621,-0.69409,-0.63672,0.16870;
19:36:43.631,-0.70410,-0.64355,0.17456;
19:36:43.641,-0.73779,-0.64551,0.17310;
19:36:43.651,-0.75708,-0.63867,0.16528;
19:36:43.661,-0.75879,-0.63818,0.14819;
19:36:43.671,-0.75806,-0.62939,0.14307;
19:36:43.681,-0.73218,-0.63770,0.15796;
19:36:43.691,-0.70947,-0.65796,0.17993;
19:36:43.701,-0.69800,-0.65698,0.16992;
19:36:43.711,-0.70508,-0.64355,0.14038;
19:36:43.721,-0.73193,-0.63940,0.09375;
19:36:43.731,-0.74756,-0.64673,0.10913;
19:36:43.741,-0.73926,-0.65405,0.19336;
19:36:43.751,-0.75098,-0.63770,0.17505;
19:36:43.761,-0.73462,-0.65771,0.14258;
19:36:43.771,-0.73804,-0.64307,0.13989;
19:36:43.781,-0.70483,-0.64478,0.15430;
19:36:43.791,-0.71338,-0.64917,0.16357;
19:36:43.801,-0.72119,-0.63892,0.14404;
19:36:43.811,-0.72900,-0.63330,0.13232;
19:36:43.821,-0.73877,-0.63745,0.14746;
19:36:43.831,-0.75195,-0.64624,0.17676;
19:36:43.841,-0.76587,-0.64551,0.19678;
19:36:43.851,-0.76709,-0.65771,0.20288;
19:36:43.861,-0.76123,-0.66064,0.18750;
19:36:43.871,-0.74976,-0.63940,0.16016;
19:36:43.881,-0.73120,-0.63501,0.14355;
19:36:43.891,-0.71289,-0.63281,0.13354;
19:36:43.901,-0.71387,-0.63525,0.13232;
19:36:43.911,-0.72974,-0.64624,0.15381;
19:36:43.921,-0.72388,-0.65356,0.17383;
19:36:43.931,-0.71948,-0.63623,0.18164;
19:36:43.941,-0.72241,-0.63306,0.18677;
19:36:43.951,-0.72974,-0.64087,0.17920;
19:36:43.961,-0.74878,-0.63916,0.16406;
19:36:43.971,-0.74219,-0.63940,0.15308;
19:36:43.981,-0.73804,-0.63965,0.15894;
19:36:43.991,-0.74487,-0.63892,0.17505;
19:36:44.001,-0.74048,-0.64233,0.18994;
19:36:44.011,-0.73999,-0.65112,0.21313;
19:36:44.021,-0.74463,-0.65845,0.21777;
19:36:44.031,-0.75244,-0.64844,0.19775;
19:36:44.041,-0.75903,-0.63843,0.17798;
19:36:44.051,-0.76172,-0.64282,0.16089;
19:36:44.061,-0.76587,-0.63989,0.14575;
19:36:44.071,-0.76270,-0.63647,0.13550;
19:36:44.081,-0.75269,-0.63940,0.13892;
19:36:44.091,-0.74561,-0.63965,0.14868;
19:36:44.101,-0.73706,-0.63281,0.16455;
19:36:44.111,-0.74072,-0.63086,0.18481;
19:36:44.121,-0.73682,-0.63721,0.19995;
19:36:44.131,-0.72534,-0.64038,0.21680;
19:36:44.141,-0.72876,-0.63818,0.21631;
19:36:44.151,-0.74927,-0.63501,0.20288;
19:36:44.161,-0.76514,-0.63623,0.18066;
19:36:44.171,-0.77856,-0.63867,0.16309;
19:36:44.181,-0.78247,-0.63403,0.16455;
19:36:44.191,-0.77368,-0.63525,0.17456;
19:36:44.201,-0.77100,-0.63306,0.18188;
19:36:44.211,-0.76880,-0.63135,0.18115;
19:36:44.221,-0.76099,-0.63818,0.18579;
19:36:44.231,-0.74854,-0.63550,0.19629;
19:36:44.241,-0.74243,-0.63525,0.20654;
19:36:44.251,-0.74170,-0.63770,0.21387;
19:36:44.261,-0.75049,-0.62915,0.21631;
19:36:44.271,-0.75562,-0.63062,0.22021;
19:36:44.281,-0.75708,-0.63623,0.21973;
19:36:44.291,-0.76147,-0.63110,0.20239;
19:36:44.301,-0.76807,-0.62646,0.18408;
19:36:44.311,-0.76587,-0.63501,0.17505;
19:36:44.321,-0.76245,-0.64087,0.16748;
19:36:44.331,-0.76392,-0.63477,0.16284;
19:36:44.341,-0.75488,-0.63208,0.16968;
19:36:44.351,-0.73389,-0.63135,0.18140;
19:36:44.361,-0.71411,-0.62866,0.19214;
19:36:44.371,-0.70679,-0.62915,0.19604;
19:36:44.381,-0.70483,-0.63135,0.19482;
19:36:44.391,-0.70459,-0.62964,0.20020;
19:36:44.401,-0.70508,-0.63330,0.21387;
19:36:44.411,-0.70337,-0.63403,0.21851;
19:36:44.421,-0.69849,-0.63184,0.21094;
19:36:44.431,-0.71826,-0.63477,0.19873;
19:36:44.441,-0.74756,-0.63232,0.18335;
19:36:44.451,-0.76001,-0.62964,0.16968;
19:36:44.461,-0.76196,-0.63452,0.16626;
19:36:44.471,-0.75830,-0.64014,0.17480;
19:36:44.481,-0.74805,-0.63867,0.18042;
19:36:44.491,-0.73096,-0.63110,0.18774;
19:36:44.501,-0.71655,-0.63257,0.19800;
19:36:44.511,-0.69629,-0.63232,0.20483;
19:36:44.521,-0.68823,-0.62549,0.19824;
19:36:44.531,-0.70361,-0.62354,0.19263;
19:36:44.541,-0.72534,-0.62256,0.18628;
19:36:44.551,-0.74170,-0.62256,0.17798;
19:36:44.561,-0.73999,-0.62256,0.18140;
19:36:44.571,-0.73999,-0.62256,0.18164;
19:36:44.581,-0.74805,-0.62354,0.19238;
19:36:44.591,-0.75317,-0.62378,0.21021;
19:36:44.601,-0.75757,-0.63135,0.22778;
19:36:44.611,-0.75903,-0.63623,0.22363;
19:36:44.621,-0.75391,-0.62671,0.20654;
19:36:44.631,-0.74609,-0.62817,0.18970;
19:36:44.641,-0.73706,-0.62964,0.17822;
19:36:44.651,-0.72949,-0.62354,0.17480;
19:36:44.661,-0.73755,-0.62549,0.17847;
19:36:44.671,-0.73975,-0.62305,0.18555;
19:36:44.681,-0.74634,-0.61743,0.19336;
19:36:44.691,-0.75537,-0.62573,0.20923;
19:36:44.701,-0.75879,-0.62842,0.21704;
19:36:44.711,-0.76685,-0.62012,0.21362;
19:36:44.721,-0.76709,-0.62598,0.19995;
19:36:44.731,-0.76025,-0.63159,0.19092;
19:36:44.741,-0.74951,-0.62769,0.19556;
19:36:44.751,-0.74561,-0.62646,0.19800;
19:36:44.761,-0.74536,-0.63037,0.19385;
19:36:44.771,-0.74731,-0.63208,0.18970;
19:36:44.781,-0.75171,-0.62402,0.18848;
19:36:44.791,-0.75024,-0.62231,0.19116;
19:36:44.801,-0.74707,-0.62622,0.19580;
19:36:44.811,-0.74487,-0.62573,0.19800;
19:36:44.821,-0.74731,-0.62256,0.19580;
19:36:44.831,-0.74780,-0.62305,0.19067;
19:36:44.841,-0.74731,-0.62769,0.19019;
19:36:44.851,-0.74854,-0.62280,0.20142;
19:36:44.861,-0.74146,-0.62598,0.20581;
19:36:44.871,-0.73462,-0.62939,0.20166;
19:36:44.881,-0.73438,-0.62500,0.19824;
19:36:44.891,-0.73901,-0.62549,0.19141;
19:36:44.901,-0.73950,-0.62329,0.18677;
19:36:44.911,-0.74585,-0.62329,0.19165;
19:36:44.921,-0.75488,-0.62085,0.22046;
19:36:44.931,-0.76270,-0.62573,0.22437;
19:36:44.941,-0.76099,-0.62939,0.21924;
19:36:44.951,-0.75757,-0.62329,0.20923;
19:36:44.961,-0.75366,-0.61816,0.20361;
19:36:44.971,-0.75293,-0.62036,0.20532;
19:36:44.981,-0.75098,-0.62354,0.20093;
19:36:44.991,-0.74072,-0.62280,0.19946;
19:36:45.001,-0.72827,-0.62549,0.20850;
19:36:45.011,-0.71509,-0.62476,0.21094;
19:36:45.021,-0.72119,-0.61865,0.21143;
19:36:45.031,-0.74731,-0.61816,0.20264;
19:36:45.041,-0.75757,-0.62109,0.19531;
19:36:45.051,-0.75928,-0.62036,0.19727;
19:36:45.061,-0.76489,-0.62207,0.20386;
19:36:45.071,-0.76758,-0.62573,0.21191;
19:36:45.081,-0.76587,-0.61499,0.20923;
19:36:45.091,-0.76709,-0.61475,0.21655;
19:36:45.101,-0.77075,-0.62646,0.21509;
19:36:45.111,-0.76880,-0.62280,0.20801;
19:36:45.121,-0.76196,-0.61646,0.20239;
19:36:45.131,-0.75269,-0.61987,0.19580;
19:36:45.141,-0.74487,-0.62134,0.19629;
19:36:45.151,-0.73730,-0.61450,0.19971;
19:36:45.161,-0.73096,-0.61084,0.20874;
19:36:45.171,-0.72607,-0.61938,0.21509;
19:36:45.181,-0.73804,-0.62427,0.21484;
19:36:45.191,-0.75439,-0.62036,0.20557;
19:36:45.201,-0.76050,-0.62231,0.20044;
19:36:45.211,-0.76196,-0.62305,0.19629;
19:36:45.221,-0.76099,-0.61353,0.19141;
19:36:45.231,-0.76001,-0.61499,0.19678;
19:36:45.241,-0.75415,-0.62036,0.19922;
19:36:45.251,-0.75171,-0.61621,0.20093;
19:36:45.261,-0.75000,-0.61743,0.19971;
19:36:45.271,-0.74731,-0.62329,0.19165;
19:36:45.281,-0.74707,-0.62085,0.18701;
19:36:45.291,-0.74829,-0.61353,0.17285;
19:36:45.301,-0.73828,-0.60986,0.18799;
19:36:45.311,-0.74683,-0.61499,0.20630;
19:36:45.321,-0.76050,-0.61670,0.22485;
19:36:45.331,-0.77930,-0.62109,0.21533;
19:36:45.341,-0.78076,-0.61353,0.19946;
19:36:45.351,-0.76953,-0.61353,0.19092;
19:36:45.361,-0.75049,-0.61255,0.21973;
19:36:45.371,-0.74707,-0.61230,0.22119;
19:36:45.381,-0.76709,-0.61401,0.20264;
19:36:45.391,-0.77881,-0.62915,0.18823;
19:36:45.401,-0.78271,-0.62671,0.18359;
19:36:45.411,-0.79077,-0.61938,0.18213;
19:36:45.421,-0.80762,-0.60962,0.19312;
19:36:45.431,-0.80103,-0.59521,0.20947;
19:36:45.441,-0.77051,-0.58618,0.23389;
19:36:45.451,-0.75562,-0.59863,0.25903;
19:36:45.461,-0.75293,-0.62305,0.26196;
19:36:45.471,-0.74536,-0.63379,0.25049;
19:36:45.481,-0.74561,-0.61963,0.21167;
19:36:45.491,-0.73560,-0.59521,0.17871;
19:36:45.501,-0.72583,-0.59595,0.16699;
19:36:45.511,-0.72656,-0.62256,0.17163;
19:36:45.521,-0.73071,-0.62646,0.19043;
19:36:45.531,-0.74023,-0.61426,0.21460;
19:36:45.541,-0.75415,-0.61060,0.23975;
19:36:45.551,-0.76221,-0.61230,0.25122;
19:36:45.561,-0.76147,-0.61792,0.24634;
19:36:45.571,-0.75952,-0.62280,0.24609;
19:36:45.581,-0.76001,-0.62012,0.22754;
19:36:45.591,-0.76221,-0.61450,0.20264;
19:36:45.601,-0.76001,-0.61377,0.19141;
19:36:45.611,-0.75195,-0.60962,0.18408;
19:36:45.621,-0.74561,-0.61108,0.18213;
19:36:45.631,-0.73853,-0.61377,0.19092;
19:36:45.641,-0.73438,-0.61279,0.20508;
19:36:45.651,-0.73389,-0.61768,0.22021;
19:36:45.661,-0.73608,-0.61426,0.22168;
19:36:45.671,-0.74902,-0.61157,0.21606;
19:36:45.681,-0.75684,-0.61792,0.21436;
19:36:45.691,-0.76172,-0.61499,0.20313;
19:36:45.701,-0.77661,-0.61572,0.19409;
19:36:45.711,-0.78296,-0.61841,0.19116;
19:36:45.721,-0.77612,-0.61523,0.19141;
19:36:45.731,-0.77173,-0.61670,0.20093;
19:36:45.741,-0.76709,-0.61646,0.20776;
19:36:45.751,-0.76123,-0.61499,0.21069;
19:36:45.761,-0.75049,-0.61230,0.20801;
19:36:45.771,-0.73291,-0.61377,0.19873;
19:36:45.781,-0.72681,-0.61035,0.19629;
19:36:45.791,-0.72852,-0.60962,0.20508;
19:36:45.801,-0.73682,-0.61157,0.21387;
19:36:45.811,-0.75269,-0.61426,0.22119;
19:36:45.821,-0.76172,-0.61914,0.22144;
19:36:45.831,-0.77637,-0.61548,0.21802;
19:36:45.841,-0.78491,-0.61597,0.21484;
19:36:45.851,-0.77930,-0.61450,0.21094;
19:36:45.861,-0.77148,-0.61426,0.21118;
19:36:45.871,-0.76440,-0.61597,0.21338;
19:36:45.881,-0.75830,-0.61499,0.21265;
19:36:45.891,-0.74658,-0.61230,0.20361;
19:36:45.901,-0.73364,-0.61084,0.20166;
19:36:45.911,-0.71826,-0.61548,0.20728;
19:36:45.921,-0.71729,-0.61353,0.21387;
19:36:45.931,-0.73608,-0.60986,0.22314;
19:36:45.941,-0.75537,-0.61108,0.22827;
19:36:45.951,-0.77026,-0.61401,0.22266;
19:36:45.961,-0.78931,-0.61621,0.21631;
19:36:45.971,-0.79834,-0.61426,0.20630;
19:36:45.981,-0.78613,-0.60986,0.19434;
19:36:45.991,-0.77051,-0.61377,0.19116;
19:36:46.001,-0.76074,-0.61426,0.19409;
19:36:46.011,-0.74902,-0.61401,0.19507;
19:36:46.021,-0.72827,-0.61157,0.19849;
19:36:46.031,-0.71362,-0.60693,0.19922;
19:36:46.041,-0.72168,-0.60474,0.20435;
19:36:46.051,-0.73828,-0.60815,0.21973;
19:36:46.061,-0.75732,-0.60132,0.23315;
19:36:46.071,-0.77100,-0.60864,0.24365;
19:36:46.081,-0.79297,-0.62085,0.24146;
19:36:46.091,-0.80298,-0.61499,0.22534;
19:36:46.101,-0.78760,-0.61401,0.20483;
19:36:46.111,-0.77515,-0.60938,0.19214;
19:36:46.121,-0.76440,-0.61182,0.18433;
19:36:46.131,-0.75537,-0.60938,0.18384;
19:36:46.141,-0.74707,-0.60693,0.19775;
19:36:46.151,-0.73682,-0.61084,0.21362;
19:36:46.161,-0.72827,-0.61401,0.23169;
19:36:46.171,-0.72681,-0.61011,0.23853;
19:36:46.181,-0.73560,-0.60571,0.23340;
19:36:46.191,-0.75146,-0.60815,0.22314;
19:36:46.201,-0.76074,-0.60864,0.20996;
19:36:46.211,-0.77417,-0.60815,0.20679;
19:36:46.221,-0.79272,-0.61328,0.20752;
19:36:46.231,-0.79248,-0.60986,0.21289;
19:36:46.241,-0.77686,-0.60962,0.21509;
19:36:46.251,-0.76343,-0.61304,0.21216;
19:36:46.261,-0.75708,-0.61035,0.21216;
19:36:46.271,-0.75146,-0.60767,0.20923;
19:36:46.281,-0.74731,-0.60059,0.20972;
19:36:46.291,-0.74634,-0.60742,0.21191;
19:36:46.301,-0.74512,-0.61108,0.21338;
19:36:46.311,-0.75171,-0.60571,0.21143;
19:36:46.321,-0.76123,-0.60693,0.21069;
19:36:46.331,-0.76465,-0.61377,0.21143;
19:36:46.341,-0.76465,-0.61255,0.21216;
19:36:46.351,-0.76587,-0.60913,0.21582;
19:36:46.361,-0.77075,-0.61255,0.21851;
19:36:46.371,-0.76978,-0.60669,0.21631;
19:36:46.381,-0.76538,-0.60547,0.21484;
19:36:46.391,-0.75952,-0.61255,0.21753;
19:36:46.401,-0.75269,-0.60962,0.22119;
19:36:46.411,-0.75122,-0.60059,0.21997;
19:36:46.421,-0.75049,-0.60669,0.21460;
19:36:46.431,-0.74756,-0.61035,0.21509;
19:36:46.441,-0.74561,-0.60840,0.21094;
19:36:46.451,-0.74390,-0.60840,0.20923;
19:36:46.461,-0.74463,-0.60547,0.20752;
19:36:46.471,-0.74854,-0.60425,0.21021;
19:36:46.481,-0.75439,-0.60547,0.21777;
19:36:46.491,-0.75903,-0.60571,0.22266;
19:36:46.501,-0.76880,-0.60229,0.22510;
19:36:46.511,-0.78418,-0.60791,0.22192;
19:36:46.521,-0.79150,-0.61279,0.21069;
19:36:46.531,-0.78394,-0.61304,0.20337;
19:36:46.541,-0.77637,-0.60596,0.19995;
19:36:46.551,-0.76611,-0.60132,0.20410;
19:36:46.561,-0.75269,-0.60425,0.21729;
19:36:46.571,-0.74146,-0.60840,0.22168;
19:36:46.581,-0.72925,-0.61182,0.21777;
19:36:46.591,-0.71948,-0.60303,0.20972;
19:36:46.601,-0.72827,-0.60083,0.20996;
19:36:46.611,-0.74438,-0.60376,0.21143;
19:36:46.621,-0.75732,-0.60034,0.21997;
19:36:46.631,-0.72412,-0.60791,0.20825;
19:36:46.641,-0.70166,-0.59741,0.20947;
19:36:46.651,-0.69727,-0.59155,0.21533;
19:36:46.661,-0.71729,-0.60327,0.22290;
19:36:46.671,-0.73535,-0.60571,0.22388;
19:36:46.681,-0.75586,-0.59912,0.22314;
19:36:46.691,-0.78540,-0.60327,0.22534;
19:36:46.701,-0.81226,-0.60742,0.21802;
19:36:46.711,-0.82471,-0.60254,0.20776;
19:36:46.721,-0.82104,-0.60474,0.19824;
19:36:46.731,-0.80151,-0.60962,0.19434;
19:36:46.741,-0.77759,-0.60303,0.19556;
19:36:46.751,-0.75854,-0.60352,0.19824;
19:36:46.761,-0.72852,-0.60742,0.20728;
19:36:46.771,-0.70776,-0.60229,0.20898;
19:36:46.781,-0.70581,-0.59375,0.21362;
19:36:46.791,-0.71948,-0.59448,0.21997;
19:36:46.801,-0.76099,-0.59985,0.23657;
19:36:46.811,-0.81104,-0.60327,0.21289;
19:36:46.821,-0.82056,-0.60620,0.20459;
19:36:46.831,-0.77173,-0.59888,0.19922;
19:36:46.841,-0.74707,-0.59326,0.20825;
19:36:46.851,-0.74658,-0.59595,0.22534;
19:36:46.861,-0.77710,-0.59595,0.23755;
19:36:46.871,-0.81421,-0.60254,0.22168;
19:36:46.881,-0.78662,-0.60474,0.20361;
19:36:46.891,-0.76465,-0.59351,0.20068;
19:36:46.901,-0.75806,-0.59717,0.20703;
19:36:46.911,-0.75024,-0.59595,0.21533;
19:36:46.921,-0.74121,-0.59326,0.22119;
19:36:46.931,-0.74121,-0.59644,0.22290;
19:36:46.941,-0.75269,-0.59448,0.22632;
19:36:46.951,-0.76001,-0.59521,0.22046;
19:36:46.961,-0.77759,-0.59521,0.21729;
19:36:46.971,-0.80518,-0.59741,0.21484;
19:36:46.981,-0.81494,-0.60449,0.20776;
19:36:46.991,-0.80371,-0.60156,0.20679;
19:36:47.001,-0.78857,-0.60400,0.20508;
19:36:47.011,-0.77539,-0.60303,0.19995;
19:36:47.021,-0.76880,-0.59277,0.19727;
19:36:47.031,-0.76489,-0.59399,0.19995;
19:36:47.041,-0.75903,-0.60059,0.20996;
19:36:47.051,-0.74756,-0.60059,0.21826;
19:36:47.061,-0.73706,-0.59888,0.21924;
19:36:47.071,-0.74243,-0.60327,0.21997;
19:36:47.081,-0.75366,-0.60229,0.21265;
19:36:47.091,-0.76221,-0.60107,0.20313;
19:36:47.101,-0.77124,-0.59473,0.19775;
19:36:47.111,-0.78149,-0.59766,0.20190;
19:36:47.121,-0.77954,-0.60718,0.20703;
19:36:47.131,-0.77441,-0.60083,0.20630;
19:36:47.141,-0.77100,-0.59912,0.21094;
19:36:47.151,-0.77026,-0.60229,0.21118;
19:36:47.161,-0.76758,-0.59863,0.20654;
19:36:47.171,-0.76245,-0.60010,0.20361;
19:36:47.181,-0.75610,-0.60889,0.19897;
19:36:47.191,-0.74902,-0.60303,0.19287;
19:36:47.201,-0.75195,-0.59351,0.19434;
19:36:47.211,-0.75610,-0.59766,0.19702;
19:36:47.221,-0.76001,-0.60498,0.20410;
19:36:47.231,-0.76465,-0.60132,0.20605;
19:36:47.241,-0.76636,-0.60010,0.20532;
19:36:47.251,-0.76465,-0.60400,0.20776;
19:36:47.261,-0.77026,-0.60229,0.20679;
19:36:47.271,-0.77856,-0.60083,0.20947;
19:36:47.281,-0.78638,-0.59937,0.20532;
19:36:47.291,-0.78247,-0.60059,0.21045;
19:36:47.301,-0.77368,-0.60620,0.20605;
19:36:47.311,-0.76392,-0.60596,0.20337;
19:36:47.321,-0.75464,-0.60278,0.20313;
19:36:47.331,-0.74951,-0.59961,0.19702;
19:36:47.341,-0.74609,-0.59863,0.19434;
19:36:47.351,-0.75098,-0.59863,0.19946;
19:36:47.361,-0.76025,-0.59619,0.20703;
19:36:47.371,-0.76929,-0.60352,0.21240;
19:36:47.381,-0.77075,-0.60742,0.21753;
19:36:47.391,-0.77271,-0.60474,0.21387;
19:36:47.401,-0.77246,-0.60376,0.20752;
19:36:47.411,-0.77124,-0.60229,0.19556;
19:36:47.421,-0.77148,-0.59937,0.19409;
19:36:47.431,-0.76685,-0.60376,0.19531;
19:36:47.441,-0.76074,-0.60596,0.19385;
19:36:47.451,-0.75781,-0.60107,0.19946;
19:36:47.461,-0.75610,-0.59790,0.20117;
19:36:47.471,-0.75659,-0.59668,0.20166;
19:36:47.481,-0.75928,-0.60083,0.21045;
19:36:47.491,-0.76123,-0.60522,0.20996;
19:36:47.501,-0.76489,-0.60010,0.20776;
19:36:47.511,-0.77100,-0.59814,0.20679;
19:36:47.521,-0.78247,-0.60156,0.19800;
19:36:47.531,-0.78052,-0.60620,0.19604;
19:36:47.541,-0.76855,-0.60742,0.20117;
19:36:47.551,-0.75854,-0.60547,0.20044;
19:36:47.561,-0.75293,-0.59937,0.20288;
19:36:47.571,-0.75146,-0.60034,0.20532;
19:36:47.581,-0.75195,-0.60107,0.20313;
19:36:47.591,-0.75317,-0.60229,0.20166;
19:36:47.601,-0.75293,-0.60669,0.20093;
19:36:47.611,-0.75439,-0.59790,0.19385;
19:36:47.621,-0.76001,-0.59863,0.19458;
19:36:47.631,-0.76855,-0.60181,0.19897;
19:36:47.641,-0.78613,-0.60034,0.20190;
19:36:47.651,-0.80444,-0.60278,0.20874;
19:36:47.661,-0.79858,-0.60669,0.21021;
19:36:47.671,-0.78369,-0.60767,0.20679;
19:36:47.681,-0.77344,-0.60425,0.19727;
19:36:47.691,-0.76465,-0.60107,0.19873;
19:36:47.701,-0.75366,-0.60034,0.20068;
19:36:47.711,-0.74316,-0.60278,0.19922;
19:36:47.721,-0.73560,-0.60132,0.19775;
19:36:47.731,-0.73975,-0.59668,0.19507;
19:36:47.741,-0.75171,-0.59766,0.20239;
19:36:47.751,-0.76001,-0.59937,0.21045;
19:36:47.761,-0.77441,-0.59717,0.22046;
19:36:47.771,-0.79370,-0.60498,0.22168;
19:36:47.781,-0.80640,-0.60767,0.21436;
19:36:47.791,-0.80518,-0.60303,0.20166;
19:36:47.801,-0.79443,-0.60132,0.18994;
19:36:47.811,-0.78198,-0.60181,0.18872;
19:36:47.821,-0.76831,-0.60034,0.19043;
19:36:47.831,-0.75903,-0.59668,0.19824;
19:36:47.841,-0.74829,-0.59644,0.20483;
19:36:47.851,-0.73682,-0.59570,0.21265;
19:36:47.861,-0.73462,-0.59912,0.21216;
19:36:47.871,-0.74536,-0.59814,0.20923;
19:36:47.881,-0.75684,-0.59766,0.19971;
19:36:47.891,-0.76929,-0.59619,0.19116;
19:36:47.901,-0.78735,-0.59595,0.19189;
19:36:47.911,-0.80298,-0.59814,0.18994;
19:36:47.921,-0.81323,-0.59741,0.18872;
19:36:47.931,-0.80103,-0.59375,0.19043;
19:36:47.941,-0.78149,-0.59961,0.19946;
19:36:47.951,-0.76831,-0.60449,0.20386;
19:36:47.961,-0.75586,-0.59790,0.21265;
19:36:47.971,-0.74463,-0.59863,0.21899;
19:36:47.981,-0.73633,-0.59668,0.21240;
19:36:47.991,-0.74097,-0.59277,0.20508;
19:36:48.001,-0.75415,-0.59253,0.20361;
19:36:48.011,-0.76440,-0.59741,0.20361;
19:36:48.021,-0.77051,-0.59692,0.20752;
19:36:48.031,-0.78516,-0.58984,0.21265;
19:36:48.041,-0.80688,-0.59888,0.22339;
19:36:48.051,-0.81274,-0.61133,0.22607;
19:36:48.061,-0.80518,-0.60425,0.21289;
19:36:48.071,-0.79126,-0.59668,0.20288;
19:36:48.081,-0.77954,-0.59375,0.19336;
19:36:48.091,-0.76538,-0.59082,0.18677;
19:36:48.101,-0.75317,-0.58984,0.19360;
19:36:48.111,-0.74854,-0.58789,0.20679;
19:36:48.121,-0.75000,-0.59302,0.22729;
19:36:48.131,-0.75781,-0.59253,0.23584;
19:36:48.141,-0.77002,-0.58398,0.23828;
19:36:48.151,-0.78516,-0.59082,0.24292;
19:36:48.161,-0.80029,-0.59619,0.23340;
19:36:48.171,-0.82153,-0.58838,0.22119;
19:36:48.181,-0.83569,-0.58911,0.21460;
19:36:48.191,-0.83911,-0.58984,0.21118;
19:36:48.201,-0.83887,-0.58423,0.21216;
19:36:48.211,-0.82666,-0.58984,0.22974;
19:36:48.221,-0.80420,-0.59692,0.25439;
19:36:48.231,-0.78320,-0.58398,0.27148;
19:36:48.241,-0.77148,-0.57813,0.28125;
19:36:48.251,-0.76611,-0.58936,0.28369;
19:36:48.261,-0.75732,-0.59741,0.28223;
19:36:48.271,-0.75488,-0.58862,0.27759;
19:36:48.281,-0.76172,-0.59888,0.27466;
19:36:48.291,-0.80640,-0.58374,0.25195;
19:36:48.301,-0.82495,-0.58325,0.26147;
19:36:48.311,-0.80640,-0.59351,0.25000;
19:36:48.321,-0.71484,-0.59985,0.23193;
19:36:48.331,-0.70508,-0.58984,0.21411;
19:36:48.341,-0.70337,-0.60010,0.19165;
19:36:48.351,-0.75439,-0.58325,0.16577;
19:36:48.361,-0.77100,-0.58984,0.13818;
19:36:48.371,-0.78369,-0.59131,0.12646;
19:36:48.381,-0.77100,-0.59351,0.13623;
19:36:48.391,-0.76050,-0.60205,0.13867;
19:36:48.401,-0.75366,-0.60815,0.13647;
19:36:48.411,-0.74243,-0.60864,0.13818;
19:36:48.421,-0.73242,-0.59595,0.13745;
19:36:48.431,-0.72900,-0.59131,0.12329;
19:36:48.441,-0.72803,-0.59766,0.09546;
19:36:48.451,-0.74634,-0.59253,0.05542;
19:36:48.461,-0.78418,-0.59204,0.01294;
19:36:48.471,-0.81372,-0.58984,-0.01953;
19:36:48.481,-0.82007,-0.58423,-0.03052;
19:36:48.491,-0.82080,-0.58887,-0.01123;
19:36:48.501,-0.82568,-0.58838,0.02783;
19:36:48.511,-0.82129,-0.58740,0.08911;
19:36:48.521,-0.79248,-0.59839,0.14648;
19:36:48.531,-0.76440,-0.60181,0.16333;
19:36:48.541,-0.75122,-0.58545,0.15967;
19:36:48.551,-0.72705,-0.57275,0.14746;
19:36:48.561,-0.72412,-0.58667,0.12280;
19:36:48.571,-0.73633,-0.58960,0.09717;
19:36:48.581,-0.75073,-0.59497,0.08374;
19:36:48.591,-0.77197,-0.60229,0.08789;
19:36:48.601,-0.80737,-0.59155,0.10205;
19:36:48.611,-0.84424,-0.58252,0.12622;
19:36:48.621,-0.86011,-0.59033,0.15039;
19:36:48.631,-0.86621,-0.59863,0.16260;
19:36:48.641,-0.85645,-0.58813,0.17285;
19:36:48.651,-0.83765,-0.58105,0.18530;
19:36:48.661,-0.80176,-0.58081,0.18652;
19:36:48.671,-0.76343,-0.58521,0.18140;
19:36:48.681,-0.73926,-0.58911,0.16504;
