time,acc_x,acc_y,acc_z
18:50:17.051,-0.02124,-0.70166,-0.70532;
18:50:17.061,-0.02222,-0.70166,-0.70728;
18:50:17.071,-0.02173,-0.69922,-0.70728;
18:50:17.081,-0.02075,-0.70020,-0.70752;
18:50:17.091,-0.02173,-0.70117,-0.70435;
18:50:17.101,-0.02124,-0.69849,-0.70483;
18:50:17.111,-0.02173,-0.70044,-0.70581;
18:50:17.121,-0.02197,-0.69922,-0.70337;
18:50:17.131,-0.02222,-0.69946,-0.70483;
18:50:17.141,-0.02319,-0.70044,-0.70459;
18:50:17.151,-0.02441,-0.70190,-0.70605;
18:50:17.161,-0.02417,-0.70190,-0.70703;
18:50:17.171,-0.02368,-0.70190,-0.70605;
18:50:17.181,-0.02295,-0.70190,-0.70728;
18:50:17.191,-0.02246,-0.69775,-0.70703;
18:50:17.201,-0.02246,-0.69922,-0.70703;
18:50:17.211,-0.02319,-0.69922,-0.70483;
18:50:17.221,-0.02368,-0.70068,-0.70483;
18:50:17.231,-0.02271,-0.70093,-0.70483;
18:50:17.241,-0.02319,-0.70166,-0.70605;
18:50:17.251,-0.02271,-0.69849,-0.70874;
18:50:17.261,-0.02246,-0.69995,-0.70508;
18:50:17.271,-0.02368,-0.70239,-0.70654;
18:50:17.281,-0.02344,-0.70117,-0.70752;
18:50:17.291,-0.02417,-0.70142,-0.70703;
18:50:17.301,-0.02271,-0.70117,-0.70459;
18:50:17.311,-0.02148,-0.70166,-0.70483;
18:50:17.321,-0.02197,-0.69897,-0.70435;
18:50:17.331,-0.02368,-0.69849,-0.70483;
18:50:17.341,-0.02319,-0.70239,-0.70728;
18:50:17.351,-0.02246,-0.70093,-0.70557;
18:50:17.361,-0.02173,-0.70093,-0.70630;
18:50:17.371,-0.02271,-0.69775,-0.70386;
18:50:17.381,-0.02368,-0.70020,-0.70605;
18:50:17.391,-0.02319,-0.70044,-0.70703;
18:50:17.401,-0.02246,-0.70239,-0.70557;
18:50:17.411,-0.02271,-0.70215,-0.70605;
18:50:17.421,-0.02344,-0.70264,-0.70630;
18:50:17.431,-0.02295,-0.70215,-0.70435;
18:50:17.441,-0.02319,-0.70068,-0.70410;
18:50:17.451,-0.02319,-0.70190,-0.70654;
18:50:17.461,-0.02271,-0.70068,-0.70532;
18:50:17.471,-0.02295,-0.69897,-0.70654;
18:50:17.481,-0.02417,-0.70044,-0.70874;
18:50:17.491,-0.02393,-0.70020,-0.70679;
18:50:17.501,-0.02222,-0.70117,-0.70557;
18:50:17.511,-0.02197,-0.70117,-0.70532;
18:50:17.521,-0.02246,-0.70093,-0.70776;
18:50:17.531,-0.02368,-0.69897,-0.70825;
18:50:17.541,-0.02393,-0.70142,-0.70850;
18:50:17.551,-0.02197,-0.70142,-0.70752;
18:50:17.561,-0.02344,-0.69922,-0.70850;
18:50:17.571,-0.02368,-0.70166,-0.71021;
18:50:17.581,-0.02319,-0.70068,-0.70825;
18:50:17.591,-0.02271,-0.69751,-0.70581;
18:50:17.601,-0.02197,-0.70044,-0.70581;
18:50:17.611,-0.02295,-0.70264,-0.70679;
18:50:17.621,-0.02393,-0.70068,-0.70557;
18:50:17.631,-0.02295,-0.70166,-0.70801;
18:50:17.641,-0.02197,-0.70166,-0.70605;
18:50:17.651,-0.02344,-0.69995,-0.70654;
18:50:17.661,-0.02417,-0.70142,-0.70703;
18:50:17.671,-0.02441,-0.70190,-0.70288;
18:50:17.681,-0.02173,-0.70117,-0.70581;
18:50:17.691,-0.02100,-0.70044,-0.70679;
18:50:17.701,-0.02173,-0.70166,-0.70728;
18:50:17.711,-0.02222,-0.69971,-0.70630;
18:50:17.721,-0.02124,-0.69897,-0.70483;
18:50:17.731,-0.02319,-0.70190,-0.70630;
18:50:17.741,-0.02319,-0.70239,-0.70630;
18:50:17.751,-0.02246,-0.70020,-0.70654;
18:50:17.761,-0.02441,-0.70020,-0.70752;
18:50:17.771,-0.02319,-0.70117,-0.70728;
18:50:17.781,-0.02393,-0.70020,-0.70630;
18:50:17.791,-0.02344,-0.70044,-0.70654;
18:50:17.801,-0.02271,-0.69995,-0.70410;
18:50:17.811,-0.02319,-0.69995,-0.70605;
18:50:17.821,-0.02417,-0.70264,-0.70703;
18:50:17.831,-0.02271,-0.70166,-0.70654;
18:50:17.841,-0.02368,-0.70166,-0.70654;
18:50:17.851,-0.02393,-0.70215,-0.70801;
18:50:17.861,-0.02295,-0.70044,-0.70874;
18:50:17.871,-0.02490,-0.69971,-0.70605;
18:50:17.881,-0.02588,-0.70361,-0.70581;
18:50:17.891,-0.02295,-0.70166,-0.70630;
18:50:17.901,-0.02173,-0.70239,-0.70728;
18:50:17.911,-0.02197,-0.70557,-0.70337;
18:50:17.921,-0.02344,-0.70264,-0.70557;
18:50:17.931,-0.02417,-0.70239,-0.70654;
18:50:17.941,-0.02295,-0.70313,-0.70703;
18:50:17.951,-0.02393,-0.70166,-0.70776;
18:50:17.961,-0.02319,-0.69946,-0.70679;
18:50:17.971,-0.02417,-0.70142,-0.70679;
18:50:17.981,-0.02271,-0.70166,-0.70776;
18:50:17.991,-0.02466,-0.70264,-0.70361;
18:50:18.001,-0.02295,-0.70020,-0.70752;
18:50:18.011,-0.02246,-0.70044,-0.70825;
18:50:18.021,-0.02197,-0.69995,-0.70459;
18:50:18.031,-0.02222,-0.70093,-0.70728;
18:50:18.041,-0.02271,-0.69971,-0.71021;
18:50:18.051,-0.02368,-0.70166,-0.70776;
18:50:18.061,-0.02295,-0.70239,-0.70532;
18:50:18.071,-0.02173,-0.70044,-0.70605;
18:50:18.081,-0.02124,-0.69946,-0.70605;
18:50:18.091,-0.02246,-0.70239,-0.70361;
18:50:18.101,-0.02271,-0.69922,-0.70410;
18:50:18.111,-0.02197,-0.70068,-0.70386;
18:50:18.121,-0.02197,-0.70386,-0.70605;
18:50:18.131,-0.02441,-0.69995,-0.70679;
18:50:18.141,-0.02368,-0.69897,-0.70483;
18:50:18.151,-0.02222,-0.69946,-0.70654;
18:50:18.161,-0.02173,-0.70142,-0.70630;
18:50:18.171,-0.02124,-0.70093,-0.70581;
18:50:18.181,-0.02173,-0.69800,-0.70459;
18:50:18.191,-0.02124,-0.69922,-0.70410;
18:50:18.201,-0.02124,-0.69775,-0.70532;
18:50:18.211,-0.02319,-0.69849,-0.70435;
18:50:18.221,-0.02319,-0.69849,-0.70801;
18:50:18.231,-0.02271,-0.69946,-0.70654;
18:50:18.241,-0.02344,-0.70068,-0.70435;
18:50:18.251,-0.02222,-0.70020,-0.70581;
18:50:18.261,-0.02173,-0.69946,-0.70654;
18:50:18.271,-0.02222,-0.69946,-0.70825;
18:50:18.281,-0.02271,-0.69800,-0.70703;
18:50:18.291,-0.02197,-0.69922,-0.70654;
18:50:18.301,-0.02075,-0.69971,-0.70532;
18:50:18.311,-0.02148,-0.69824,-0.70630;
18:50:18.321,-0.02197,-0.69922,-0.70703;
18:50:18.331,-0.02319,-0.69751,-0.70703;
18:50:18.341,-0.02246,-0.69849,-0.70703;
18:50:18.351,-0.02271,-0.70093,-0.70654;
18:50:18.361,-0.02319,-0.70068,-0.70703;
18:50:18.371,-0.02124,-0.69849,-0.70435;
18:50:18.381,-0.02271,-0.69995,-0.70654;
18:50:18.391,-0.02222,-0.70020,-0.70776;
18:50:18.401,-0.02197,-0.69751,-0.70630;
18:50:18.411,-0.02319,-0.69775,-0.70581;
18:50:18.421,-0.02100,-0.69580,-0.70410;
18:50:18.431,-0.02271,-0.69727,-0.70703;
18:50:18.441,-0.02295,-0.69849,-0.70630;
18:50:18.451,-0.02295,-0.70117,-0.70435;
18:50:18.461,-0.02197,-0.70166,-0.70679;
18:50:18.471,-0.02271,-0.70044,-0.70508;
18:50:18.481,-0.02295,-0.70215,-0.70435;
18:50:18.491,-0.02002,-0.69873,-0.70605;
18:50:18.501,-0.02148,-0.70190,-0.70508;
18:50:18.511,-0.02246,-0.69775,-0.70508;
18:50:18.521,-0.02173,-0.69922,-0.70557;
18:50:18.531,-0.02124,-0.69995,-0.70825;
18:50:18.541,-0.02319,-0.69897,-0.70508;
18:50:18.551,-0.02197,-0.70142,-0.70483;
18:50:18.561,-0.02124,-0.70264,-0.70557;
18:50:18.571,-0.02197,-0.70068,-0.70532;
18:50:18.581,-0.02319,-0.70166,-0.70459;
18:50:18.591,-0.02246,-0.69922,-0.70313;
18:50:18.601,-0.02197,-0.70020,-0.70630;
18:50:18.611,-0.02344,-0.70020,-0.70776;
18:50:18.621,-0.02271,-0.69995,-0.70825;
18:50:18.631,-0.02368,-0.70239,-0.70874;
18:50:18.641,-0.02222,-0.70239,-0.70483;
18:50:18.651,-0.02295,-0.70313,-0.70654;
18:50:18.661,-0.02393,-0.70020,-0.70508;
18:50:18.671,-0.02295,-0.69849,-0.70654;
18:50:18.681,-0.02319,-0.70020,-0.70801;
18:50:18.691,-0.02271,-0.70239,-0.70532;
18:50:18.701,-0.02344,-0.70190,-0.70654;
18:50:18.711,-0.02295,-0.70117,-0.70581;
18:50:18.721,-0.02246,-0.69995,-0.70435;
18:50:18.731,-0.02319,-0.70044,-0.70679;
18:50:18.741,-0.02246,-0.70044,-0.70508;
18:50:18.751,-0.02222,-0.70044,-0.70386;
18:50:18.761,-0.02246,-0.70142,-0.70581;
18:50:18.771,-0.02197,-0.70190,-0.70728;
18:50:18.781,-0.02246,-0.70117,-0.70679;
18:50:18.791,-0.02222,-0.69971,-0.70679;
18:50:18.801,-0.02222,-0.70117,-0.70703;
18:50:18.811,-0.02197,-0.70044,-0.70557;
18:50:18.821,-0.02246,-0.70166,-0.70703;
18:50:18.831,-0.02271,-0.70386,-0.70703;
18:50:18.841,-0.02222,-0.70361,-0.70776;
18:50:18.851,-0.02295,-0.70044,-0.70752;
18:50:18.861,-0.02173,-0.69824,-0.70605;
18:50:18.871,-0.02271,-0.70215,-0.70410;
18:50:18.881,-0.02197,-0.70190,-0.70361;
18:50:18.891,-0.02124,-0.69995,-0.70679;
18:50:18.901,-0.02271,-0.69971,-0.70557;
18:50:18.911,-0.02100,-0.69775,-0.70410;
18:50:18.921,-0.02271,-0.69922,-0.70532;
18:50:18.931,-0.02173,-0.69995,-0.70874;
18:50:18.941,-0.02197,-0.70215,-0.70581;
18:50:18.951,-0.02197,-0.70093,-0.70337;
18:50:18.961,-0.02222,-0.70068,-0.70557;
18:50:18.971,-0.02368,-0.70288,-0.70801;
18:50:18.981,-0.02344,-0.70166,-0.70557;
18:50:18.991,-0.02368,-0.70117,-0.70532;
18:50:19.001,-0.02173,-0.69922,-0.70605;
18:50:19.011,-0.02173,-0.69971,-0.70508;
18:50:19.021,-0.02197,-0.69995,-0.70679;
18:50:19.031,-0.02222,-0.70190,-0.70532;
18:50:19.041,-0.02344,-0.70190,-0.70410;
18:50:19.051,-0.02148,-0.69971,-0.70459;
18:50:19.061,-0.01929,-0.69971,-0.70557;
18:50:19.071,-0.02197,-0.70190,-0.70605;
18:50:19.081,-0.02295,-0.70044,-0.70435;
18:50:19.091,-0.02148,-0.70044,-0.70630;
18:50:19.101,-0.02100,-0.69971,-0.70703;
18:50:19.111,-0.02271,-0.69873,-0.70386;
18:50:19.121,-0.02344,-0.69946,-0.70825;
18:50:19.131,-0.02222,-0.69995,-0.70703;
18:50:19.141,-0.02002,-0.69922,-0.70459;
18:50:19.151,-0.02173,-0.69946,-0.70508;
18:50:19.161,-0.02246,-0.70239,-0.70703;
18:50:19.171,-0.02246,-0.69897,-0.70776;
18:50:19.181,-0.02100,-0.70068,-0.70679;
18:50:19.191,-0.02246,-0.70239,-0.70654;
18:50:19.201,-0.02368,-0.69971,-0.70557;
18:50:19.211,-0.02173,-0.70068,-0.70703;
18:50:19.221,-0.02393,-0.69971,-0.70776;
18:50:19.231,-0.02197,-0.69971,-0.70801;
18:50:19.241,-0.02173,-0.70020,-0.70703;
18:50:19.251,-0.02295,-0.69995,-0.70654;
18:50:19.261,-0.02148,-0.69897,-0.70752;
18:50:19.271,-0.02368,-0.69922,-0.70679;
18:50:19.281,-0.02319,-0.70068,-0.70654;
18:50:19.291,-0.02197,-0.70288,-0.70752;
18:50:19.301,-0.02197,-0.70190,-0.70776;
18:50:19.311,-0.02148,-0.70044,-0.70703;
18:50:19.321,-0.02295,-0.70093,-0.70581;
18:50:19.331,-0.02100,-0.70068,-0.70752;
18:50:19.341,-0.02197,-0.70020,-0.70557;
18:50:19.351,-0.02271,-0.70190,-0.70483;
18:50:19.361,-0.02197,-0.70166,-0.70581;
18:50:19.371,-0.02173,-0.69922,-0.70581;
18:50:19.381,-0.02075,-0.70044,-0.70654;
18:50:19.391,-0.02319,-0.70313,-0.70703;
18:50:19.401,-0.02466,-0.70166,-0.70581;
18:50:19.411,-0.02222,-0.69873,-0.70483;
18:50:19.421,-0.02197,-0.70288,-0.70679;
18:50:19.431,-0.02319,-0.70264,-0.70703;
18:50:19.441,-0.02271,-0.69971,-0.70630;
18:50:19.451,-0.02344,-0.69946,-0.70679;
18:50:19.461,-0.02173,-0.69653,-0.70532;
18:50:19.471,-0.02246,-0.69995,-0.70557;
18:50:19.481,-0.02368,-0.70288,-0.70679;
18:50:19.491,-0.02197,-0.70142,-0.70728;
18:50:19.501,-0.02295,-0.70386,-0.70752;
18:50:19.511,-0.02271,-0.70190,-0.70728;
18:50:19.521,-0.02246,-0.70020,-0.70679;
18:50:19.531,-0.02271,-0.70239,-0.70532;
18:50:19.541,-0.02344,-0.70166,-0.70679;
18:50:19.551,-0.02271,-0.70166,-0.70728;
18:50:19.561,-0.02173,-0.70093,-0.70801;
18:50:19.571,-0.02295,-0.69873,-0.70483;
18:50:19.581,-0.02417,-0.70288,-0.70532;
18:50:19.591,-0.02295,-0.70239,-0.70630;
18:50:19.601,-0.02246,-0.69971,-0.70703;
18:50:19.611,-0.02246,-0.70020,-0.70679;
18:50:19.621,-0.02222,-0.69849,-0.70459;
18:50:19.631,-0.02246,-0.69922,-0.70508;
18:50:19.641,-0.02148,-0.70142,-0.70923;
18:50:19.651,-0.02148,-0.69971,-0.70776;
18:50:19.661,-0.02393,-0.69995,-0.70679;
18:50:19.671,-0.02417,-0.69971,-0.70825;
18:50:19.681,-0.02222,-0.70093,-0.70728;
18:50:19.691,-0.02197,-0.70190,-0.70508;
18:50:19.701,-0.02344,-0.70117,-0.70508;
18:50:19.711,-0.02246,-0.70142,-0.70630;
18:50:19.721,-0.02197,-0.69946,-0.70581;
18:50:19.731,-0.02319,-0.69971,-0.70508;
18:50:19.741,-0.02295,-0.70264,-0.70508;
18:50:19.751,-0.02344,-0.70239,-0.70654;
18:50:19.761,-0.02319,-0.70190,-0.70728;
18:50:19.771,-0.02173,-0.70288,-0.70752;
18:50:19.781,-0.02173,-0.70020,-0.70728;
18:50:19.791,-0.02319,-0.70044,-0.70801;
18:50:19.801,-0.02271,-0.70117,-0.70654;
18:50:19.811,-0.02271,-0.70264,-0.70801;
18:50:19.821,-0.02344,-0.70361,-0.70776;
18:50:19.831,-0.02368,-0.70239,-0.70361;
18:50:19.841,-0.02295,-0.70093,-0.70581;
18:50:19.851,-0.02393,-0.70166,-0.70728;
18:50:19.861,-0.02295,-0.70044,-0.70459;
18:50:19.871,-0.02197,-0.69995,-0.70825;
18:50:19.881,-0.02222,-0.70068,-0.70605;
18:50:19.891,-0.02271,-0.70215,-0.70557;
18:50:19.901,-0.02246,-0.69971,-0.70972;
18:50:19.911,-0.02295,-0.70020,-0.70825;
18:50:19.921,-0.02319,-0.70142,-0.70923;
18:50:19.931,-0.02246,-0.70068,-0.70850;
18:50:19.941,-0.02246,-0.70166,-0.70654;
18:50:19.951,-0.02100,-0.70142,-0.70776;
18:50:19.961,-0.02124,-0.70068,-0.70654;
18:50:19.971,-0.02222,-0.70068,-0.70508;
18:50:19.981,-0.02246,-0.70068,-0.70776;
18:50:19.991,-0.02246,-0.69922,-0.70605;
18:50:20.001,-0.02319,-0.70068,-0.70703;
18:50:20.011,-0.02319,-0.69922,-0.70801;
18:50:20.021,-0.02393,-0.69751,-0.70605;
18:50:20.031,-0.02368,-0.70044,-0.70776;
18:50:20.041,-0.02197,-0.69995,-0.70654;
18:50:20.051,-0.02319,-0.70044,-0.70728;
18:50:20.061,-0.02295,-0.70239,-0.70410;
18:50:20.071,-0.02295,-0.70264,-0.70581;
18:50:20.081,-0.02319,-0.70288,-0.70728;
18:50:20.091,-0.02222,-0.70117,-0.70532;
18:50:20.101,-0.02295,-0.70532,-0.70483;
18:50:20.111,-0.02222,-0.70313,-0.70654;
18:50:20.121,-0.02319,-0.70239,-0.70947;
18:50:20.131,-0.02368,-0.70215,-0.70557;
18:50:20.141,-0.02319,-0.70215,-0.70337;
18:50:20.151,-0.02246,-0.70483,-0.70361;
18:50:20.161,-0.02368,-0.70313,-0.70435;
18:50:20.171,-0.02490,-0.70337,-0.70581;
18:50:20.181,-0.02173,-0.70093,-0.70605;
18:50:20.191,-0.02222,-0.70142,-0.70435;
18:50:20.201,-0.02319,-0.70337,-0.70581;
18:50:20.211,-0.02197,-0.70190,-0.70410;
18:50:20.221,-0.02124,-0.69824,-0.70728;
18:50:20.231,-0.02148,-0.69995,-0.70825;
18:50:20.241,-0.02246,-0.69946,-0.70459;
18:50:20.251,-0.02173,-0.69849,-0.70435;
18:50:20.261,-0.02124,-0.70044,-0.70483;
18:50:20.271,-0.02319,-0.69971,-0.70605;
18:50:20.281,-0.02295,-0.69897,-0.70605;
18:50:20.291,-0.02148,-0.69824,-0.70605;
18:50:20.301,-0.02319,-0.69971,-0.70581;
18:50:20.311,-0.02222,-0.69922,-0.70630;
18:50:20.321,-0.02100,-0.70142,-0.70532;
18:50:20.331,-0.02173,-0.70020,-0.70410;
18:50:20.341,-0.02246,-0.70020,-0.70508;
18:50:20.351,-0.02295,-0.70239,-0.70728;
18:50:20.361,-0.02222,-0.70166,-0.70679;
18:50:20.371,-0.02222,-0.70239,-0.70459;
18:50:20.381,-0.02417,-0.70239,-0.70581;
18:50:20.391,-0.02393,-0.70239,-0.70605;
18:50:20.401,-0.02222,-0.69995,-0.70459;
18:50:20.411,-0.02173,-0.70215,-0.70459;
18:50:20.421,-0.02222,-0.69971,-0.70776;
18:50:20.431,-0.02246,-0.69775,-0.70752;
18:50:20.441,-0.02368,-0.69873,-0.70630;
18:50:20.451,-0.02173,-0.70166,-0.70508;
18:50:20.461,-0.02100,-0.69751,-0.70459;
18:50:20.471,-0.02295,-0.69849,-0.70410;
18:50:20.481,-0.02197,-0.70020,-0.70679;
18:50:20.491,-0.02368,-0.70117,-0.70776;
18:50:20.501,-0.02319,-0.70044,-0.70483;
18:50:20.511,-0.02173,-0.69873,-0.70557;
18:50:20.521,-0.02124,-0.70142,-0.70386;
18:50:20.531,-0.02222,-0.70142,-0.70386;
18:50:20.541,-0.02368,-0.70264,-0.70605;
18:50:20.551,-0.02271,-0.70361,-0.70557;
18:50:20.561,-0.02124,-0.70020,-0.70410;
18:50:20.571,-0.02075,-0.69897,-0.70532;
18:50:20.581,-0.02246,-0.70044,-0.70801;
18:50:20.591,-0.02344,-0.70190,-0.70728;
18:50:20.601,-0.02319,-0.70166,-0.70435;
18:50:20.611,-0.02295,-0.70166,-0.70508;
18:50:20.621,-0.02271,-0.70044,-0.70703;
18:50:20.631,-0.02441,-0.70020,-0.70630;
18:50:20.641,-0.02319,-0.70093,-0.70630;
18:50:20.651,-0.02344,-0.70093,-0.70630;
18:50:20.661,-0.02368,-0.70166,-0.70703;
18:50:20.671,-0.02246,-0.70142,-0.70483;
18:50:20.681,-0.02441,-0.70142,-0.70483;
18:50:20.691,-0.02295,-0.70044,-0.70508;
18:50:20.701,-0.02222,-0.69873,-0.70825;
18:50:20.711,-0.02319,-0.69995,-0.70654;
18:50:20.721,-0.02319,-0.70068,-0.70752;
18:50:20.731,-0.02197,-0.70093,-0.70947;
18:50:20.741,-0.02295,-0.70190,-0.70654;
18:50:20.751,-0.02222,-0.69971,-0.70776;
18:50:20.761,-0.02148,-0.69897,-0.70508;
18:50:20.771,-0.02393,-0.70093,-0.70557;
18:50:20.781,-0.02368,-0.69873,-0.70654;
18:50:20.791,-0.02295,-0.70020,-0.70898;
18:50:20.801,-0.02173,-0.70020,-0.70605;
18:50:20.811,-0.02246,-0.69995,-0.70532;
18:50:20.821,-0.02222,-0.70020,-0.70508;
18:50:20.831,-0.02197,-0.70117,-0.70532;
18:50:20.841,-0.02222,-0.70093,-0.70557;
18:50:20.851,-0.02148,-0.69897,-0.70337;
18:50:20.861,-0.02246,-0.70020,-0.70288;
18:50:20.871,-0.02344,-0.70313,-0.70459;
18:50:20.881,-0.02197,-0.70337,-0.70923;
18:50:20.891,-0.02344,-0.70288,-0.70532;
18:50:20.901,-0.02344,-0.70190,-0.70630;
18:50:20.911,-0.02319,-0.70264,-0.70581;
18:50:20.921,-0.02368,-0.70117,-0.70654;
18:50:20.931,-0.02319,-0.69849,-0.70825;
18:50:20.941,-0.02344,-0.69800,-0.70557;
18:50:20.951,-0.02197,-0.69702,-0.70630;
18:50:20.961,-0.02319,-0.70068,-0.70850;
18:50:20.971,-0.02441,-0.70068,-0.70776;
18:50:20.981,-0.02246,-0.70117,-0.70801;
18:50:20.991,-0.02197,-0.70044,-0.70728;
18:50:21.001,-0.02246,-0.70093,-0.70337;
18:50:21.011,-0.02026,-0.70410,-0.70264;
18:50:21.021,-0.02002,-0.70215,-0.70435;
18:50:21.031,-0.02124,-0.70215,-0.70605;
18:50:21.041,-0.02319,-0.70264,-0.70386;
18:50:21.051,-0.02417,-0.70117,-0.70459;
18:50:21.061,-0.02441,-0.69873,-0.70801;
18:50:21.071,-0.02075,-0.70020,-0.70776;
18:50:21.081,-0.02173,-0.70117,-0.70508;
18:50:21.091,-0.02002,-0.69922,-0.70679;
18:50:21.101,-0.02075,-0.69775,-0.70654;
18:50:21.111,-0.02148,-0.69678,-0.70752;
18:50:21.121,-0.02295,-0.69849,-0.70825;
18:50:21.131,-0.02319,-0.69946,-0.70776;
18:50:21.141,-0.02100,-0.69727,-0.70679;
18:50:21.151,-0.02246,-0.69873,-0.70532;
18:50:21.161,-0.02271,-0.69775,-0.70581;
18:50:21.171,-0.02246,-0.69580,-0.70874;
18:50:21.181,-0.02148,-0.69629,-0.70850;
18:50:21.191,-0.02026,-0.69629,-0.70801;
18:50:21.201,-0.02100,-0.69873,-0.70752;
18:50:21.211,-0.02124,-0.69824,-0.70630;
18:50:21.221,-0.02124,-0.69873,-0.70410;
18:50:21.231,-0.02197,-0.70166,-0.70459;
18:50:21.241,-0.02148,-0.70239,-0.70508;
18:50:21.251,-0.02124,-0.70166,-0.70532;
18:50:21.261,-0.02148,-0.70215,-0.70654;
18:50:21.271,-0.02075,-0.69873,-0.70728;
18:50:21.281,-0.02344,-0.70020,-0.70630;
18:50:21.291,-0.02417,-0.70264,-0.70703;
18:50:21.301,-0.02222,-0.69946,-0.70874;
18:50:21.311,-0.02271,-0.69971,-0.70654;
18:50:21.321,-0.02222,-0.70117,-0.70435;
18:50:21.331,-0.02075,-0.70142,-0.70581;
18:50:21.341,-0.02026,-0.70215,-0.70581;
18:50:21.351,-0.01904,-0.70093,-0.70532;
18:50:21.361,-0.02002,-0.69995,-0.70581;
18:50:21.371,-0.02197,-0.70068,-0.70435;
18:50:21.381,-0.02148,-0.69922,-0.70410;
18:50:21.391,-0.02246,-0.70142,-0.70483;
18:50:21.401,-0.02271,-0.70361,-0.70825;
18:50:21.411,-0.02319,-0.70459,-0.70605;
18:50:21.421,-0.02100,-0.70337,-0.70264;
18:50:21.431,-0.02148,-0.70361,-0.70313;
18:50:21.441,-0.02222,-0.70361,-0.70654;
18:50:21.451,-0.02075,-0.70288,-0.70703;
18:50:21.461,-0.02344,-0.70483,-0.70166;
18:50:21.471,-0.02393,-0.70410,-0.70020;
18:50:21.481,-0.02344,-0.70386,-0.70459;
18:50:21.491,-0.02124,-0.70239,-0.70288;
18:50:21.501,-0.02100,-0.70190,-0.70166;
18:50:21.511,-0.02295,-0.70410,-0.70313;
18:50:21.521,-0.02319,-0.70215,-0.70557;
18:50:21.531,-0.02417,-0.70215,-0.70605;
18:50:21.541,-0.02368,-0.70142,-0.70557;
18:50:21.551,-0.02319,-0.69995,-0.70605;
18:50:21.561,-0.02197,-0.70313,-0.70190;
18:50:21.571,-0.02124,-0.70313,-0.70483;
18:50:21.581,-0.02222,-0.70581,-0.70435;
18:50:21.591,-0.02246,-0.70459,-0.70215;
18:50:21.601,-0.02222,-0.70386,-0.70264;
18:50:21.611,-0.02295,-0.70654,-0.70288;
18:50:21.621,-0.02271,-0.70435,-0.70337;
18:50:21.631,-0.02197,-0.70264,-0.70142;
18:50:21.641,-0.02197,-0.70190,-0.70215;
18:50:21.651,-0.02246,-0.70313,-0.70215;
18:50:21.661,-0.02368,-0.70483,-0.70532;
18:50:21.671,-0.02295,-0.70728,-0.70508;
18:50:21.681,-0.02271,-0.70752,-0.70410;
18:50:21.691,-0.02148,-0.70361,-0.70483;
18:50:21.701,-0.02344,-0.70166,-0.70068;
18:50:21.711,-0.02295,-0.70459,-0.70190;
18:50:21.721,-0.02222,-0.70410,-0.70313;
18:50:21.731,-0.02173,-0.70288,-0.70166;
18:50:21.741,-0.02173,-0.70508,-0.70288;
18:50:21.751,-0.02295,-0.70557,-0.70508;
18:50:21.761,-0.02173,-0.70093,-0.70435;
18:50:21.771,-0.02173,-0.70117,-0.70264;
18:50:21.781,-0.02295,-0.70068,-0.69971;
18:50:21.791,-0.02393,-0.70337,-0.70117;
18:50:21.801,-0.02246,-0.70630,-0.70361;
18:50:21.811,-0.02295,-0.70288,-0.70386;
18:50:21.821,-0.02319,-0.70044,-0.70386;
18:50:21.831,-0.02148,-0.70288,-0.70215;
18:50:21.841,-0.02173,-0.70361,-0.70459;
18:50:21.851,-0.02197,-0.70264,-0.70288;
18:50:21.861,-0.02319,-0.70435,-0.70117;
18:50:21.871,-0.02222,-0.70386,-0.70581;
18:50:21.881,-0.02295,-0.70532,-0.70581;
18:50:21.891,-0.02368,-0.70337,-0.70337;
18:50:21.901,-0.02222,-0.70142,-0.70166;
18:50:21.911,-0.02246,-0.70410,-0.70166;
18:50:21.921,-0.02124,-0.70190,-0.70459;
18:50:21.931,-0.02344,-0.70483,-0.70557;
18:50:21.941,-0.02441,-0.70459,-0.70459;
18:50:21.951,-0.02319,-0.70361,-0.70508;
18:50:21.961,-0.02124,-0.70410,-0.70459;
18:50:21.971,-0.01978,-0.70044,-0.70313;
18:50:21.981,-0.02197,-0.70166,-0.70483;
18:50:21.991,-0.02197,-0.70093,-0.70288;
18:50:22.001,-0.02100,-0.70166,-0.70630;
18:50:22.011,-0.02197,-0.70020,-0.70581;
18:50:22.021,-0.02148,-0.70190,-0.70435;
18:50:22.031,-0.02344,-0.70166,-0.70435;
18:50:22.041,-0.02490,-0.70215,-0.70264;
18:50:22.051,-0.02319,-0.70288,-0.70557;
18:50:22.061,-0.02222,-0.70117,-0.70142;
18:50:22.071,-0.02173,-0.70142,-0.70483;
18:50:22.081,-0.02124,-0.70044,-0.70654;
18:50:22.091,-0.02173,-0.70386,-0.70532;
18:50:22.101,-0.02368,-0.70483,-0.70630;
18:50:22.111,-0.02246,-0.70093,-0.70190;
18:50:22.121,-0.02197,-0.69971,-0.70386;
18:50:22.131,-0.02197,-0.69946,-0.70459;
18:50:22.141,-0.02319,-0.70288,-0.70361;
18:50:22.151,-0.02393,-0.70142,-0.70386;
18:50:22.161,-0.02271,-0.70142,-0.70532;
18:50:22.171,-0.02246,-0.70117,-0.70361;
18:50:22.181,-0.02295,-0.70166,-0.70557;
18:50:22.191,-0.02222,-0.70386,-0.70703;
18:50:22.201,-0.02173,-0.70264,-0.70264;
18:50:22.211,-0.02246,-0.70288,-0.70313;
18:50:22.221,-0.02295,-0.70166,-0.70483;
18:50:22.231,-0.02319,-0.70288,-0.70483;
18:50:22.241,-0.02344,-0.70215,-0.70337;
18:50:22.251,-0.02246,-0.70264,-0.70459;
18:50:22.261,-0.02441,-0.70386,-0.70483;
18:50:22.271,-0.02344,-0.70068,-0.70459;
18:50:22.281,-0.02344,-0.70264,-0.70557;
18:50:22.291,-0.02319,-0.70288,-0.70605;
18:50:22.301,-0.02466,-0.70483,-0.70630;
18:50:22.311,-0.02393,-0.70337,-0.70752;
18:50:22.321,-0.02246,-0.70020,-0.70581;
18:50:22.331,-0.02271,-0.70288,-0.70654;
18:50:22.341,-0.02295,-0.70264,-0.70459;
18:50:22.351,-0.02295,-0.70190,-0.70508;
18:50:22.361,-0.02246,-0.70337,-0.70801;
18:50:22.371,-0.02295,-0.70239,-0.70630;
18:50:22.381,-0.02246,-0.70044,-0.70752;
18:50:22.391,-0.02271,-0.70190,-0.70605;
18:50:22.401,-0.02344,-0.70239,-0.70728;
18:50:22.411,-0.02295,-0.70288,-0.70728;
18:50:22.421,-0.02344,-0.70386,-0.70410;
18:50:22.431,-0.02368,-0.70386,-0.70435;
18:50:22.441,-0.02319,-0.70166,-0.70605;
18:50:22.451,-0.02246,-0.70239,-0.70532;
18:50:22.461,-0.02319,-0.70313,-0.70654;
18:50:22.471,-0.02319,-0.69971,-0.70435;
18:50:22.481,-0.02295,-0.70190,-0.70557;
18:50:22.491,-0.02393,-0.70190,-0.70581;
18:50:22.501,-0.02344,-0.70264,-0.70630;
18:50:22.511,-0.02393,-0.70313,-0.70654;
18:50:22.521,-0.02368,-0.70117,-0.70532;
18:50:22.531,-0.02271,-0.70142,-0.70776;
18:50:22.541,-0.02344,-0.70215,-0.70581;
18:50:22.551,-0.02393,-0.70190,-0.70679;
18:50:22.561,-0.02490,-0.70068,-0.70435;
18:50:22.571,-0.02417,-0.70093,-0.70435;
18:50:22.581,-0.02368,-0.69971,-0.70557;
18:50:22.591,-0.02441,-0.70386,-0.70654;
18:50:22.601,-0.02393,-0.70313,-0.70825;
18:50:22.611,-0.02344,-0.70215,-0.70703;
18:50:22.621,-0.02417,-0.70190,-0.70483;
18:50:22.631,-0.02515,-0.70117,-0.70508;
18:50:22.641,-0.02393,-0.70190,-0.70850;
18:50:22.651,-0.02319,-0.69971,-0.70483;
18:50:22.661,-0.02417,-0.70068,-0.70313;
18:50:22.671,-0.02393,-0.70166,-0.70703;
18:50:22.681,-0.02368,-0.70166,-0.70605;
18:50:22.691,-0.02271,-0.70190,-0.70483;
18:50:22.701,-0.02148,-0.70166,-0.70703;
18:50:22.711,-0.02319,-0.70166,-0.70776;
18:50:22.721,-0.02319,-0.69971,-0.70654;
18:50:22.731,-0.02319,-0.70068,-0.70630;
18:50:22.741,-0.02319,-0.70142,-0.70630;
18:50:22.751,-0.02319,-0.70093,-0.70825;
18:50:22.761,-0.02417,-0.70093,-0.70996;
18:50:22.771,-0.02319,-0.69946,-0.70679;
18:50:22.781,-0.02393,-0.70117,-0.70776;
18:50:22.791,-0.02295,-0.69922,-0.70703;
18:50:22.801,-0.02173,-0.69800,-0.70386;
18:50:22.811,-0.02295,-0.69946,-0.70459;
18:50:22.821,-0.02271,-0.70093,-0.70557;
18:50:22.831,-0.02319,-0.70044,-0.70532;
18:50:22.841,-0.02222,-0.70166,-0.70630;
18:50:22.851,-0.02368,-0.70386,-0.70605;
18:50:22.861,-0.02490,-0.70166,-0.70361;
18:50:22.871,-0.02197,-0.70166,-0.70850;
18:50:22.881,-0.02319,-0.70410,-0.70532;
18:50:22.891,-0.02368,-0.70483,-0.70361;
18:50:22.901,-0.02271,-0.70239,-0.70679;
18:50:22.911,-0.02295,-0.70264,-0.70459;
18:50:22.921,-0.02271,-0.70068,-0.70679;
18:50:22.931,-0.02344,-0.70166,-0.70728;
18:50:22.941,-0.02173,-0.69922,-0.70728;
18:50:22.951,-0.02295,-0.70093,-0.70581;
18:50:22.961,-0.02344,-0.70337,-0.70483;
18:50:22.971,-0.02075,-0.69995,-0.70532;
18:50:22.981,-0.02319,-0.70044,-0.70435;
18:50:22.991,-0.02344,-0.70142,-0.70630;
18:50:23.001,-0.02417,-0.70239,-0.70679;
18:50:23.011,-0.02295,-0.70288,-0.70605;
18:50:23.021,-0.02344,-0.70264,-0.70776;
18:50:23.031,-0.02393,-0.70215,-0.70728;
18:50:23.041,-0.02197,-0.70435,-0.70630;
18:50:23.051,-0.02368,-0.70190,-0.70435;
18:50:23.061,-0.02393,-0.70068,-0.70581;
18:50:23.071,-0.02246,-0.70215,-0.70630;
18:50:23.081,-0.02197,-0.70020,-0.70703;
18:50:23.091,-0.02368,-0.70117,-0.70703;
18:50:23.101,-0.02319,-0.70117,-0.70508;
18:50:23.111,-0.02368,-0.70093,-0.70557;
18:50:23.121,-0.02295,-0.70068,-0.70801;
18:50:23.131,-0.02100,-0.69946,-0.70630;
18:50:23.141,-0.02246,-0.69824,-0.70557;
18:50:23.151,-0.02368,-0.70117,-0.70679;
18:50:23.161,-0.02246,-0.69971,-0.70850;
18:50:23.171,-0.02271,-0.69946,-0.70850;
18:50:23.181,-0.02246,-0.70117,-0.70630;
18:50:23.191,-0.02295,-0.69971,-0.70752;
18:50:23.201,-0.02173,-0.69849,-0.70435;
18:50:23.211,-0.02197,-0.70093,-0.70581;
18:50:23.221,-0.02368,-0.70068,-0.70605;
18:50:23.231,-0.02222,-0.69946,-0.70605;
18:50:23.241,-0.02271,-0.70166,-0.70752;
18:50:23.251,-0.02197,-0.69873,-0.70581;
18:50:23.261,-0.02222,-0.69946,-0.70703;
18:50:23.271,-0.02319,-0.70142,-0.70703;
18:50:23.281,-0.02173,-0.69897,-0.70874;
18:50:23.291,-0.02100,-0.69824,-0.70605;
18:50:23.301,-0.02368,-0.70093,-0.70557;
18:50:23.311,-0.02295,-0.69922,-0.70801;
18:50:23.321,-0.02148,-0.69971,-0.70679;
18:50:23.331,-0.02271,-0.69922,-0.70728;
18:50:23.341,-0.02319,-0.69946,-0.70898;
18:50:23.351,-0.02319,-0.69946,-0.70947;
18:50:23.361,-0.02344,-0.69971,-0.70703;
18:50:23.371,-0.02466,-0.70068,-0.70850;
18:50:23.381,-0.02393,-0.70093,-0.70898;
18:50:23.391,-0.02271,-0.70142,-0.70630;
18:50:23.401,-0.02295,-0.70142,-0.70972;
18:50:23.411,-0.02295,-0.70068,-0.70752;
18:50:23.421,-0.02295,-0.70093,-0.70654;
18:50:23.431,-0.02295,-0.70117,-0.70703;
18:50:23.441,-0.02222,-0.70020,-0.70825;
18:50:23.451,-0.02319,-0.69897,-0.70801;
18:50:23.461,-0.02368,-0.69849,-0.70679;
18:50:23.471,-0.02197,-0.70093,-0.70776;
18:50:23.481,-0.02417,-0.69922,-0.70825;
18:50:23.491,-0.02417,-0.69922,-0.70752;
18:50:23.501,-0.02319,-0.69751,-0.70728;
18:50:23.511,-0.02319,-0.69873,-0.70874;
18:50:23.521,-0.02246,-0.70215,-0.70825;
18:50:23.531,-0.02197,-0.69897,-0.70630;
18:50:23.541,-0.02441,-0.70093,-0.70508;
18:50:23.551,-0.02271,-0.70166,-0.70825;
18:50:23.561,-0.02319,-0.70190,-0.70557;
18:50:23.571,-0.02417,-0.70068,-0.70508;
18:50:23.581,-0.02368,-0.70361,-0.70581;
18:50:23.591,-0.02271,-0.70337,-0.70557;
18:50:23.601,-0.02344,-0.70020,-0.70557;
18:50:23.611,-0.02271,-0.70044,-0.70605;
18:50:23.621,-0.02295,-0.70288,-0.70483;
18:50:23.631,-0.02368,-0.70117,-0.70752;
18:50:23.641,-0.02271,-0.70068,-0.70654;
18:50:23.651,-0.02295,-0.70117,-0.70752;
18:50:23.661,-0.02563,-0.70020,-0.70630;
18:50:23.671,-0.02417,-0.70020,-0.70483;
18:50:23.681,-0.02222,-0.70166,-0.70703;
18:50:23.691,-0.02271,-0.70093,-0.70532;
18:50:23.701,-0.02319,-0.69995,-0.70703;
18:50:23.711,-0.02417,-0.70264,-0.70703;
18:50:23.721,-0.02319,-0.70215,-0.70605;
18:50:23.731,-0.02393,-0.70117,-0.70630;
18:50:23.741,-0.02271,-0.70288,-0.70728;
18:50:23.751,-0.02075,-0.69897,-0.70410;
18:50:23.761,-0.02222,-0.70117,-0.70654;
18:50:23.771,-0.02344,-0.70215,-0.70654;
18:50:23.781,-0.02222,-0.69897,-0.70459;
18:50:23.791,-0.02368,-0.70068,-0.70605;
18:50:23.801,-0.02271,-0.69800,-0.70239;
18:50:23.811,-0.02246,-0.70020,-0.70605;
18:50:23.821,-0.02222,-0.70264,-0.70654;
18:50:23.831,-0.02271,-0.70166,-0.70532;
18:50:23.841,-0.02344,-0.70068,-0.70679;
18:50:23.851,-0.02344,-0.70166,-0.70825;
18:50:23.861,-0.02393,-0.70142,-0.70679;
18:50:23.871,-0.02295,-0.70117,-0.70459;
18:50:23.881,-0.02173,-0.70142,-0.70923;
18:50:23.891,-0.02197,-0.69849,-0.70630;
18:50:23.901,-0.02246,-0.70020,-0.70605;
18:50:23.911,-0.02197,-0.70068,-0.70557;
18:50:23.921,-0.02368,-0.70264,-0.70581;
18:50:23.931,-0.02295,-0.70117,-0.70654;
18:50:23.941,-0.02319,-0.70093,-0.70532;
18:50:23.951,-0.02173,-0.70459,-0.70581;
18:50:23.961,-0.02271,-0.70410,-0.70581;
18:50:23.971,-0.02295,-0.70068,-0.70728;
18:50:23.981,-0.02100,-0.70020,-0.70703;
18:50:23.991,-0.02319,-0.70239,-0.70703;
18:50:24.001,-0.02344,-0.70093,-0.70532;
18:50:24.011,-0.02393,-0.70166,-0.70874;
18:50:24.021,-0.02368,-0.70093,-0.70605;
18:50:24.031,-0.02222,-0.69922,-0.70459;
18:50:24.041,-0.02197,-0.70239,-0.70825;
18:50:24.051,-0.02417,-0.70264,-0.70508;
18:50:24.061,-0.02344,-0.70117,-0.70532;
18:50:24.071,-0.02222,-0.70142,-0.70532;
18:50:24.081,-0.02368,-0.70044,-0.70605;
18:50:24.091,-0.02295,-0.70068,-0.70581;
18:50:24.101,-0.02319,-0.69971,-0.70605;
18:50:24.111,-0.02222,-0.69922,-0.70703;
18:50:24.121,-0.02295,-0.69873,-0.70557;
18:50:24.131,-0.02393,-0.70190,-0.70508;
18:50:24.141,-0.02319,-0.70190,-0.70532;
18:50:24.151,-0.02319,-0.70044,-0.70776;
18:50:24.161,-0.02246,-0.69995,-0.70605;
18:50:24.171,-0.02222,-0.69946,-0.70532;
18:50:24.181,-0.02344,-0.70142,-0.70825;
18:50:24.191,-0.02271,-0.70093,-0.70581;
18:50:24.201,-0.02197,-0.70532,-0.70630;
18:50:24.211,-0.02246,-0.70239,-0.70557;
18:50:24.221,-0.02344,-0.70264,-0.70728;
18:50:24.231,-0.02441,-0.70190,-0.70728;
18:50:24.241,-0.02393,-0.70215,-0.70728;
18:50:24.251,-0.02368,-0.70190,-0.70898;
18:50:24.261,-0.02563,-0.69751,-0.71021;
18:50:24.271,-0.02417,-0.70068,-0.70874;
18:50:24.281,-0.02319,-0.69922,-0.70752;
18:50:24.291,-0.02319,-0.70044,-0.70752;
18:50:24.301,-0.02295,-0.70337,-0.70654;
18:50:24.311,-0.02271,-0.70093,-0.70728;
18:50:24.321,-0.02344,-0.70386,-0.70581;
18:50:24.331,-0.02393,-0.70190,-0.70557;
18:50:24.341,-0.02271,-0.70020,-0.70776;
18:50:24.351,-0.02344,-0.70239,-0.70728;
18:50:24.361,-0.02393,-0.70166,-0.70483;
18:50:24.371,-0.02441,-0.70313,-0.70410;
18:50:24.381,-0.02368,-0.70313,-0.70630;
18:50:24.391,-0.02246,-0.70215,-0.70728;
18:50:24.401,-0.02271,-0.70166,-0.70654;
18:50:24.411,-0.02295,-0.70020,-0.70581;
18:50:24.421,-0.02344,-0.70410,-0.70654;
18:50:24.431,-0.02539,-0.70190,-0.70703;
18:50:24.441,-0.02246,-0.70117,-0.70703;
18:50:24.451,-0.02271,-0.70142,-0.70508;
18:50:24.461,-0.02319,-0.69922,-0.70557;
18:50:24.471,-0.02271,-0.69873,-0.70581;
18:50:24.481,-0.02295,-0.69849,-0.70630;
18:50:24.491,-0.02344,-0.70068,-0.70825;
18:50:24.501,-0.02271,-0.69995,-0.70410;
18:50:24.511,-0.02002,-0.69922,-0.70361;
18:50:24.521,-0.02148,-0.69702,-0.70386;
18:50:24.531,-0.02246,-0.69995,-0.70508;
18:50:24.541,-0.02368,-0.70459,-0.70557;
18:50:24.551,-0.02124,-0.70190,-0.70532;
18:50:24.561,-0.02124,-0.69995,-0.70825;
18:50:24.571,-0.02344,-0.69995,-0.70386;
18:50:24.581,-0.02441,-0.70044,-0.70508;
18:50:24.591,-0.02319,-0.70142,-0.70581;
18:50:24.601,-0.02246,-0.70215,-0.70752;
18:50:24.611,-0.02319,-0.70117,-0.71045;
18:50:24.621,-0.02222,-0.70020,-0.70703;
18:50:24.631,-0.02368,-0.70142,-0.70703;
18:50:24.641,-0.02344,-0.70483,-0.70337;
18:50:24.651,-0.02222,-0.70483,-0.70532;
18:50:24.661,-0.02271,-0.70215,-0.70752;
18:50:24.671,-0.02368,-0.70288,-0.70581;
18:50:24.681,-0.02368,-0.69995,-0.70410;
18:50:24.691,-0.02295,-0.69971,-0.70508;
18:50:24.701,-0.02368,-0.70288,-0.70581;
18:50:24.711,-0.02246,-0.70142,-0.70313;
18:50:24.721,-0.02295,-0.70117,-0.70532;
18:50:24.731,-0.02222,-0.70215,-0.70654;
18:50:24.741,-0.02271,-0.70337,-0.70410;
18:50:24.751,-0.02368,-0.70068,-0.70239;
18:50:24.761,-0.02271,-0.70117,-0.70532;
18:50:24.771,-0.02246,-0.70142,-0.70776;
18:50:24.781,-0.02295,-0.70166,-0.70898;
18:50:24.791,-0.02344,-0.70093,-0.70776;
18:50:24.801,-0.02222,-0.69946,-0.70435;
18:50:24.811,-0.02295,-0.69971,-0.70874;
18:50:24.821,-0.02344,-0.70093,-0.70923;
18:50:24.831,-0.02246,-0.70410,-0.70654;
18:50:24.841,-0.02246,-0.70117,-0.70557;
18:50:24.851,-0.02271,-0.70166,-0.70532;
18:50:24.861,-0.02197,-0.70264,-0.70703;
18:50:24.871,-0.02246,-0.70313,-0.70483;
18:50:24.881,-0.02124,-0.70190,-0.70654;
18:50:24.891,-0.02197,-0.70117,-0.70557;
18:50:24.901,-0.02246,-0.70313,-0.70459;
18:50:24.911,-0.02271,-0.70044,-0.70874;
18:50:24.921,-0.02222,-0.69971,-0.70825;
18:50:24.931,-0.02271,-0.70117,-0.70679;
18:50:24.941,-0.02368,-0.69873,-0.70874;
18:50:24.951,-0.02344,-0.69995,-0.70801;
18:50:24.961,-0.02417,-0.70215,-0.70801;
18:50:24.971,-0.02393,-0.69946,-0.70825;
18:50:24.981,-0.02222,-0.70190,-0.70776;
18:50:24.991,-0.02319,-0.69995,-0.70630;
18:50:25.001,-0.02271,-0.69775,-0.70825;
18:50:25.011,-0.02295,-0.70044,-0.70874;
18:50:25.021,-0.02246,-0.69897,-0.70874;
18:50:25.031,-0.02222,-0.69775,-0.71021;
18:50:25.041,-0.02222,-0.69653,-0.70874;
18:50:25.051,-0.02173,-0.69727,-0.71045;
18:50:25.061,-0.02271,-0.69995,-0.70630;
18:50:25.071,-0.02246,-0.69971,-0.70679;
18:50:25.081,-0.02197,-0.69849,-0.70703;
18:50:25.091,-0.02295,-0.69971,-0.70825;
18:50:25.101,-0.02222,-0.69849,-0.70947;
18:50:25.111,-0.02319,-0.69849,-0.71021;
18:50:25.121,-0.02393,-0.69922,-0.70776;
18:50:25.131,-0.02222,-0.70044,-0.70752;
18:50:25.141,-0.02344,-0.70215,-0.70947;
18:50:25.151,-0.02319,-0.69751,-0.70557;
18:50:25.161,-0.02344,-0.69702,-0.70483;
18:50:25.171,-0.02246,-0.70117,-0.70801;
18:50:25.181,-0.02222,-0.69946,-0.70703;
18:50:25.191,-0.02246,-0.70093,-0.70459;
18:50:25.201,-0.02368,-0.69873,-0.70874;
18:50:25.211,-0.02563,-0.69897,-0.70801;
18:50:25.221,-0.02441,-0.70093,-0.70557;
18:50:25.231,-0.02173,-0.70068,-0.70386;
18:50:25.241,-0.02026,-0.70142,-0.70630;
18:50:25.251,-0.02173,-0.70581,-0.71045;
18:50:25.261,-0.02100,-0.70288,-0.70483;
18:50:25.271,-0.02271,-0.69922,-0.70459;
18:50:25.281,-0.02368,-0.70361,-0.70630;
18:50:25.291,-0.02319,-0.69995,-0.70459;
18:50:25.301,-0.02295,-0.69775,-0.70825;
18:50:25.311,-0.02393,-0.70215,-0.70630;
18:50:25.321,-0.02466,-0.70410,-0.70557;
18:50:25.331,-0.02612,-0.70190,-0.70337;
18:50:25.341,-0.02393,-0.69922,-0.70581;
18:50:25.351,-0.02344,-0.70044,-0.70728;
18:50:25.361,-0.02417,-0.70117,-0.70581;
18:50:25.371,-0.02393,-0.70459,-0.70605;
18:50:25.381,-0.02588,-0.70630,-0.70532;
18:50:25.391,-0.02368,-0.70313,-0.70557;
18:50:25.401,-0.02588,-0.70630,-0.70557;
18:50:25.411,-0.02490,-0.70215,-0.70728;
18:50:25.421,-0.02124,-0.69946,-0.70898;
18:50:25.431,-0.02539,-0.70386,-0.70752;
18:50:25.441,-0.02612,-0.70044,-0.70508;
18:50:25.451,-0.02319,-0.70117,-0.70654;
18:50:25.461,-0.02319,-0.70190,-0.70630;
18:50:25.471,-0.02417,-0.70361,-0.70361;
18:50:25.481,-0.02515,-0.70532,-0.70337;
18:50:25.491,-0.02539,-0.70776,-0.70044;
18:50:25.501,-0.02271,-0.70728,-0.70142;
18:50:25.511,-0.02246,-0.71045,-0.69922;
18:50:25.521,-0.02490,-0.70605,-0.69946;
18:50:25.531,-0.02588,-0.70337,-0.70044;
18:50:25.541,-0.02661,-0.70532,-0.69849;
18:50:25.551,-0.03125,-0.70386,-0.70020;
18:50:25.561,-0.02930,-0.70679,-0.69824;
18:50:25.571,-0.02710,-0.71460,-0.69629;
18:50:25.581,-0.02930,-0.71484,-0.69727;
18:50:25.591,-0.02612,-0.71094,-0.69751;
18:50:25.601,-0.02539,-0.71533,-0.69556;
18:50:25.611,-0.02808,-0.71289,-0.69629;
18:50:25.621,-0.02734,-0.70825,-0.69409;
18:50:25.631,-0.02661,-0.71069,-0.69604;
18:50:25.641,-0.02832,-0.71484,-0.69849;
18:50:25.651,-0.02905,-0.71167,-0.69604;
18:50:25.661,-0.03052,-0.71533,-0.69531;
18:50:25.671,-0.03247,-0.71484,-0.69189;
18:50:25.681,-0.03003,-0.71411,-0.69165;
18:50:25.691,-0.02905,-0.72241,-0.69189;
18:50:25.701,-0.03271,-0.71948,-0.69238;
18:50:25.711,-0.03101,-0.72046,-0.68921;
18:50:25.721,-0.03052,-0.72339,-0.68848;
18:50:25.731,-0.03198,-0.71997,-0.68896;
18:50:25.741,-0.03101,-0.71875,-0.68604;
18:50:25.751,-0.02979,-0.71851,-0.68823;
18:50:25.761,-0.02856,-0.71802,-0.68652;
18:50:25.771,-0.02734,-0.72168,-0.68896;
18:50:25.781,-0.02954,-0.72192,-0.69043;
18:50:25.791,-0.03149,-0.71729,-0.69043;
18:50:25.801,-0.03198,-0.71655,-0.69458;
18:50:25.811,-0.03027,-0.71802,-0.68970;
18:50:25.821,-0.02832,-0.72046,-0.69238;
18:50:25.831,-0.02856,-0.71997,-0.69360;
18:50:25.841,-0.03076,-0.71948,-0.69214;
18:50:25.851,-0.03027,-0.71631,-0.69360;
18:50:25.861,-0.02905,-0.71313,-0.69336;
18:50:25.871,-0.03101,-0.71484,-0.69629;
18:50:25.881,-0.03027,-0.71509,-0.69458;
18:50:25.891,-0.03003,-0.71265,-0.69556;
18:50:25.901,-0.03003,-0.71094,-0.69775;
18:50:25.911,-0.03027,-0.71094,-0.69849;
18:50:25.921,-0.03149,-0.71045,-0.69604;
18:50:25.931,-0.03198,-0.71167,-0.69385;
18:50:25.941,-0.03174,-0.70801,-0.69678;
18:50:25.951,-0.03027,-0.70703,-0.69653;
18:50:25.961,-0.03052,-0.71313,-0.69873;
18:50:25.971,-0.03101,-0.71411,-0.69727;
18:50:25.981,-0.03223,-0.71240,-0.69482;
18:50:25.991,-0.03003,-0.71289,-0.69336;
18:50:26.001,-0.03052,-0.71045,-0.69507;
18:50:26.011,-0.03125,-0.71143,-0.70142;
18:50:26.021,-0.02832,-0.71167,-0.69897;
18:50:26.031,-0.02979,-0.71021,-0.69629;
18:50:26.041,-0.03027,-0.71216,-0.69507;
18:50:26.051,-0.02930,-0.71021,-0.69531;
18:50:26.061,-0.02881,-0.71191,-0.69556;
18:50:26.071,-0.03003,-0.70654,-0.69775;
18:50:26.081,-0.03101,-0.70630,-0.69678;
18:50:26.091,-0.02856,-0.70850,-0.70557;
18:50:26.101,-0.03149,-0.70605,-0.69751;
18:50:26.111,-0.02832,-0.70825,-0.70410;
18:50:26.121,-0.02979,-0.70459,-0.70605;
18:50:26.131,-0.02856,-0.70093,-0.70337;
18:50:26.141,-0.02881,-0.70532,-0.70337;
18:50:26.151,-0.02856,-0.71143,-0.70654;
18:50:26.161,-0.02783,-0.70532,-0.70508;
18:50:26.171,-0.02759,-0.70386,-0.70483;
18:50:26.181,-0.02710,-0.70605,-0.70313;
18:50:26.191,-0.03027,-0.70898,-0.70068;
18:50:26.201,-0.02905,-0.70850,-0.70142;
18:50:26.211,-0.02661,-0.70581,-0.69751;
18:50:26.221,-0.02759,-0.70850,-0.69800;
18:50:26.231,-0.02783,-0.70850,-0.69995;
18:50:26.241,-0.02930,-0.70923,-0.69971;
18:50:26.251,-0.02734,-0.70728,-0.69946;
18:50:26.261,-0.02905,-0.71143,-0.69849;
18:50:26.271,-0.02856,-0.70972,-0.70068;
18:50:26.281,-0.02710,-0.70898,-0.69971;
18:50:26.291,-0.02832,-0.71094,-0.70337;
18:50:26.301,-0.02734,-0.70703,-0.70117;
18:50:26.311,-0.02832,-0.70972,-0.69702;
18:50:26.321,-0.02710,-0.70703,-0.69873;
18:50:26.331,-0.02734,-0.70752,-0.69849;
18:50:26.341,-0.02783,-0.70825,-0.70020;
18:50:26.351,-0.02881,-0.71094,-0.70190;
18:50:26.361,-0.02856,-0.71045,-0.70093;
18:50:26.371,-0.02759,-0.70874,-0.69995;
18:50:26.381,-0.02856,-0.71216,-0.70020;
18:50:26.391,-0.02783,-0.70923,-0.70337;
18:50:26.401,-0.02954,-0.70581,-0.69873;
18:50:26.411,-0.02930,-0.70679,-0.69727;
18:50:26.421,-0.02808,-0.70752,-0.70190;
18:50:26.431,-0.02856,-0.70898,-0.70337;
18:50:26.441,-0.02954,-0.70874,-0.70142;
18:50:26.451,-0.03027,-0.70679,-0.70093;
18:50:26.461,-0.02954,-0.71021,-0.70190;
18:50:26.471,-0.02832,-0.71069,-0.70093;
18:50:26.481,-0.02808,-0.70898,-0.70142;
18:50:26.491,-0.02856,-0.70679,-0.70068;
18:50:26.501,-0.02930,-0.70825,-0.69946;
18:50:26.511,-0.02979,-0.70947,-0.69995;
18:50:26.521,-0.02856,-0.70947,-0.69849;
18:50:26.531,-0.02783,-0.70996,-0.69800;
18:50:26.541,-0.02759,-0.71167,-0.69946;
18:50:26.551,-0.02832,-0.71411,-0.69922;
18:50:26.561,-0.02905,-0.70923,-0.70215;
18:50:26.571,-0.02930,-0.70752,-0.70215;
18:50:26.581,-0.02856,-0.70801,-0.70117;
18:50:26.591,-0.02734,-0.71045,-0.69800;
18:50:26.601,-0.02734,-0.70972,-0.69849;
18:50:26.611,-0.02832,-0.70801,-0.70166;
18:50:26.621,-0.02783,-0.70972,-0.70190;
18:50:26.631,-0.03076,-0.70728,-0.70288;
18:50:26.641,-0.02954,-0.70898,-0.70215;
18:50:26.651,-0.02979,-0.70850,-0.70044;
18:50:26.661,-0.02808,-0.71045,-0.70239;
18:50:26.671,-0.02881,-0.70776,-0.70459;
18:50:26.681,-0.02881,-0.70947,-0.70239;
18:50:26.691,-0.02930,-0.70874,-0.70020;
18:50:26.701,-0.02979,-0.70850,-0.69873;
18:50:26.711,-0.02979,-0.70874,-0.69775;
18:50:26.721,-0.03003,-0.70898,-0.70068;
18:50:26.731,-0.02954,-0.70923,-0.69849;
18:50:26.741,-0.02905,-0.70947,-0.69946;
18:50:26.751,-0.02808,-0.70801,-0.70361;
18:50:26.761,-0.02930,-0.70630,-0.69971;
18:50:26.771,-0.02856,-0.70825,-0.70142;
18:50:26.781,-0.02734,-0.70996,-0.70264;
18:50:26.791,-0.02734,-0.70874,-0.70166;
18:50:26.801,-0.02686,-0.71045,-0.70117;
18:50:26.811,-0.02905,-0.70947,-0.70386;
18:50:26.821,-0.02808,-0.70874,-0.70142;
18:50:26.831,-0.03052,-0.70972,-0.70190;
18:50:26.841,-0.03003,-0.70996,-0.70117;
18:50:26.851,-0.02832,-0.70947,-0.69946;
18:50:26.861,-0.03003,-0.70898,-0.70093;
18:50:26.871,-0.02905,-0.71045,-0.70142;
18:50:26.881,-0.02881,-0.70825,-0.69971;
18:50:26.891,-0.02954,-0.70850,-0.69971;
18:50:26.901,-0.03003,-0.70947,-0.70264;
18:50:26.911,-0.03052,-0.71021,-0.69946;
18:50:26.921,-0.02881,-0.71069,-0.69971;
18:50:26.931,-0.02856,-0.71240,-0.70044;
18:50:26.941,-0.02808,-0.71094,-0.70093;
18:50:26.951,-0.02881,-0.70850,-0.70020;
18:50:26.961,-0.03003,-0.70825,-0.69873;
18:50:26.971,-0.02783,-0.70874,-0.69775;
18:50:26.981,-0.02979,-0.71118,-0.69800;
18:50:26.991,-0.02930,-0.70972,-0.69824;
18:50:27.001,-0.02856,-0.70947,-0.70190;
18:50:27.011,-0.03003,-0.70996,-0.70117;
18:50:27.021,-0.02930,-0.70996,-0.69727;
18:50:27.031,-0.02905,-0.70947,-0.69971;
18:50:27.041,-0.02954,-0.70898,-0.70117;
18:50:27.051,-0.02954,-0.70972,-0.70020;
18:50:27.061,-0.02905,-0.70996,-0.70044;
18:50:27.071,-0.02905,-0.71069,-0.69946;
18:50:27.081,-0.02905,-0.70923,-0.70044;
18:50:27.091,-0.02905,-0.71021,-0.70313;
18:50:27.101,-0.02930,-0.70972,-0.70093;
18:50:27.111,-0.02881,-0.71045,-0.70215;
18:50:27.121,-0.02954,-0.71045,-0.70020;
18:50:27.131,-0.02881,-0.70850,-0.69946;
18:50:27.141,-0.02979,-0.71143,-0.69897;
18:50:27.151,-0.02954,-0.70972,-0.69897;
18:50:27.161,-0.02881,-0.70923,-0.69702;
18:50:27.171,-0.02930,-0.71118,-0.69702;
18:50:27.181,-0.02930,-0.71167,-0.69873;
18:50:27.191,-0.02930,-0.71118,-0.69897;
18:50:27.201,-0.02783,-0.71167,-0.69922;
18:50:27.211,-0.02832,-0.71143,-0.69897;
18:50:27.221,-0.02881,-0.71118,-0.69971;
18:50:27.231,-0.02808,-0.71094,-0.69604;
18:50:27.241,-0.02930,-0.70972,-0.69580;
18:50:27.251,-0.02979,-0.71167,-0.69873;
18:50:27.261,-0.02954,-0.71069,-0.70020;
18:50:27.271,-0.03174,-0.71143,-0.69824;
18:50:27.281,-0.02759,-0.71094,-0.69678;
18:50:27.291,-0.02856,-0.71045,-0.69849;
18:50:27.301,-0.03003,-0.70972,-0.69800;
18:50:27.311,-0.03174,-0.71167,-0.69678;
18:50:27.321,-0.02979,-0.71069,-0.69751;
18:50:27.331,-0.03003,-0.70923,-0.69824;
18:50:27.341,-0.03027,-0.71021,-0.69775;
18:50:27.351,-0.03052,-0.71143,-0.69580;
18:50:27.361,-0.02930,-0.71167,-0.69531;
18:50:27.371,-0.02979,-0.70898,-0.69824;
18:50:27.381,-0.03076,-0.71240,-0.69873;
18:50:27.391,-0.03101,-0.71387,-0.69531;
18:50:27.401,-0.03101,-0.70972,-0.69604;
18:50:27.411,-0.02979,-0.71045,-0.69775;
18:50:27.421,-0.02979,-0.71118,-0.69604;
18:50:27.431,-0.03052,-0.71191,-0.69751;
18:50:27.441,-0.02930,-0.71094,-0.69922;
18:50:27.451,-0.02954,-0.71094,-0.69775;
18:50:27.461,-0.02979,-0.71265,-0.69824;
18:50:27.471,-0.03052,-0.71240,-0.69678;
18:50:27.481,-0.03076,-0.71069,-0.69702;
18:50:27.491,-0.02881,-0.71045,-0.69653;
18:50:27.501,-0.02979,-0.71216,-0.69727;
18:50:27.511,-0.02979,-0.71338,-0.69653;
18:50:27.521,-0.02979,-0.71191,-0.69751;
18:50:27.531,-0.03101,-0.71265,-0.70020;
18:50:27.541,-0.03101,-0.71289,-0.69775;
18:50:27.551,-0.03003,-0.71289,-0.69702;
18:50:27.561,-0.02979,-0.71289,-0.69946;
18:50:27.571,-0.02881,-0.71021,-0.69897;
18:50:27.581,-0.02832,-0.71094,-0.69580;
18:50:27.591,-0.02930,-0.71436,-0.69678;
18:50:27.601,-0.02954,-0.71143,-0.69727;
18:50:27.611,-0.03003,-0.71021,-0.70020;
18:50:27.621,-0.02979,-0.71143,-0.69897;
18:50:27.631,-0.03101,-0.71216,-0.69604;
18:50:27.641,-0.02930,-0.71045,-0.69800;
18:50:27.651,-0.02954,-0.71313,-0.69751;
18:50:27.661,-0.02979,-0.71582,-0.69775;
18:50:27.671,-0.02979,-0.71118,-0.69849;
18:50:27.681,-0.03052,-0.71143,-0.69873;
18:50:27.691,-0.02954,-0.71240,-0.69751;
18:50:27.701,-0.02979,-0.71240,-0.69409;
18:50:27.711,-0.02905,-0.71265,-0.69751;
18:50:27.721,-0.02637,-0.71338,-0.69849;
18:50:27.731,-0.02930,-0.71143,-0.69824;
18:50:27.741,-0.02930,-0.70923,-0.69897;
18:50:27.751,-0.02759,-0.70947,-0.69800;
18:50:27.761,-0.03052,-0.71118,-0.69922;
18:50:27.771,-0.03003,-0.71167,-0.69849;
18:50:27.781,-0.02856,-0.71362,-0.69775;
18:50:27.791,-0.03027,-0.71289,-0.69751;
18:50:27.801,-0.03125,-0.71313,-0.69824;
18:50:27.811,-0.03052,-0.71582,-0.69775;
18:50:27.821,-0.03027,-0.71167,-0.69409;
18:50:27.831,-0.02881,-0.71143,-0.69482;
18:50:27.841,-0.03052,-0.71313,-0.69580;
18:50:27.851,-0.02881,-0.71191,-0.69360;
18:50:27.861,-0.02881,-0.71143,-0.69849;
18:50:27.871,-0.03027,-0.71143,-0.69897;
18:50:27.881,-0.02856,-0.71313,-0.69604;
18:50:27.891,-0.02930,-0.71387,-0.69946;
18:50:27.901,-0.02979,-0.71143,-0.69824;
18:50:27.911,-0.02979,-0.71387,-0.69458;
18:50:27.921,-0.02905,-0.71069,-0.69995;
18:50:27.931,-0.03101,-0.71118,-0.70020;
18:50:27.941,-0.02856,-0.70996,-0.69775;
18:50:27.951,-0.02783,-0.71191,-0.69678;
18:50:27.961,-0.02979,-0.71240,-0.69897;
18:50:27.971,-0.03027,-0.71265,-0.69824;
18:50:27.981,-0.02954,-0.71289,-0.69727;
18:50:27.991,-0.02930,-0.70996,-0.69946;
18:50:28.001,-0.02979,-0.71069,-0.69775;
18:50:28.011,-0.03076,-0.71167,-0.69824;
18:50:28.021,-0.03027,-0.71118,-0.69995;
18:50:28.031,-0.03003,-0.70947,-0.69751;
18:50:28.041,-0.03027,-0.70923,-0.69849;
18:50:28.051,-0.02905,-0.71167,-0.69897;
18:50:28.061,-0.03003,-0.71265,-0.69849;
18:50:28.071,-0.02979,-0.71167,-0.69824;
18:50:28.081,-0.03052,-0.71289,-0.69897;
18:50:28.091,-0.02979,-0.71240,-0.69800;
18:50:28.101,-0.02954,-0.71216,-0.69873;
18:50:28.111,-0.03052,-0.71362,-0.69849;
18:50:28.121,-0.02930,-0.71167,-0.69922;
18:50:28.131,-0.02954,-0.71021,-0.70044;
18:50:28.141,-0.02954,-0.71167,-0.69653;
18:50:28.151,-0.03125,-0.71265,-0.69653;
18:50:28.161,-0.02979,-0.71167,-0.69604;
18:50:28.171,-0.02954,-0.71143,-0.69604;
18:50:28.181,-0.02979,-0.71338,-0.69604;
18:50:28.191,-0.03003,-0.71143,-0.69653;
18:50:28.201,-0.03027,-0.71143,-0.69800;
18:50:28.211,-0.03027,-0.71289,-0.69751;
18:50:28.221,-0.02979,-0.71118,-0.69849;
18:50:28.231,-0.03052,-0.71387,-0.69946;
18:50:28.241,-0.03223,-0.71313,-0.69922;
18:50:28.251,-0.03003,-0.71021,-0.70020;
18:50:28.261,-0.03125,-0.71240,-0.69897;
18:50:28.271,-0.02954,-0.71265,-0.69800;
18:50:28.281,-0.02881,-0.71143,-0.69922;
18:50:28.291,-0.02979,-0.71216,-0.70020;
18:50:28.301,-0.02881,-0.71265,-0.69971;
18:50:28.311,-0.02979,-0.70825,-0.69751;
18:50:28.321,-0.02979,-0.70874,-0.69971;
18:50:28.331,-0.03052,-0.70996,-0.70068;
18:50:28.341,-0.03101,-0.71021,-0.69702;
18:50:28.351,-0.03003,-0.71411,-0.69580;
18:50:28.361,-0.02954,-0.71216,-0.69775;
18:50:28.371,-0.03101,-0.71143,-0.69995;
18:50:28.381,-0.03027,-0.71191,-0.69604;
18:50:28.391,-0.02881,-0.71118,-0.69897;
18:50:28.401,-0.03052,-0.71069,-0.69873;
18:50:28.411,-0.03076,-0.71362,-0.69873;
18:50:28.421,-0.03174,-0.71167,-0.69775;
18:50:28.431,-0.03174,-0.71265,-0.69995;
18:50:28.441,-0.03027,-0.71362,-0.69824;
18:50:28.451,-0.03125,-0.70898,-0.69531;
18:50:28.461,-0.02979,-0.71045,-0.69727;
18:50:28.471,-0.02954,-0.71118,-0.69727;
18:50:28.481,-0.03052,-0.70972,-0.69995;
18:50:28.491,-0.02979,-0.71069,-0.69946;
18:50:28.501,-0.02832,-0.71045,-0.69946;
18:50:28.511,-0.02856,-0.71069,-0.69800;
18:50:28.521,-0.02881,-0.70972,-0.69800;
18:50:28.531,-0.03003,-0.70972,-0.69922;
18:50:28.541,-0.02808,-0.71143,-0.69849;
18:50:28.551,-0.02979,-0.71362,-0.69702;
18:50:28.561,-0.02930,-0.71240,-0.69751;
18:50:28.571,-0.02979,-0.70996,-0.69824;
18:50:28.581,-0.02954,-0.71118,-0.69751;
18:50:28.591,-0.03027,-0.71265,-0.69580;
18:50:28.601,-0.02954,-0.71094,-0.69678;
18:50:28.611,-0.02954,-0.71460,-0.69727;
18:50:28.621,-0.03003,-0.71338,-0.69629;
18:50:28.631,-0.03003,-0.71362,-0.69751;
18:50:28.641,-0.02954,-0.71143,-0.69922;
18:50:28.651,-0.02954,-0.70898,-0.69995;
18:50:28.661,-0.03027,-0.71094,-0.69678;
18:50:28.671,-0.03003,-0.71045,-0.69873;
18:50:28.681,-0.02905,-0.71094,-0.69702;
18:50:28.691,-0.02856,-0.71118,-0.69629;
18:50:28.701,-0.02881,-0.71094,-0.69702;
18:50:28.711,-0.02979,-0.71289,-0.69800;
18:50:28.721,-0.02930,-0.71167,-0.69849;
18:50:28.731,-0.02832,-0.71289,-0.69751;
18:50:28.741,-0.03125,-0.71094,-0.69824;
18:50:28.751,-0.03076,-0.71021,-0.69678;
18:50:28.761,-0.03076,-0.71143,-0.69873;
18:50:28.771,-0.03052,-0.70923,-0.69824;
18:50:28.781,-0.02954,-0.70825,-0.70068;
18:50:28.791,-0.02954,-0.70825,-0.69922;
18:50:28.801,-0.02954,-0.71045,-0.69873;
18:50:28.811,-0.03076,-0.71021,-0.69922;
18:50:28.821,-0.03003,-0.71240,-0.69751;
18:50:28.831,-0.02954,-0.71167,-0.69775;
18:50:28.841,-0.03076,-0.71191,-0.69922;
18:50:28.851,-0.02979,-0.71167,-0.70020;
18:50:28.861,-0.02954,-0.71167,-0.69775;
18:50:28.871,-0.03076,-0.71533,-0.69751;
18:50:28.881,-0.02930,-0.71167,-0.69946;
18:50:28.891,-0.03027,-0.71167,-0.69897;
18:50:28.901,-0.03052,-0.71045,-0.69897;
18:50:28.911,-0.03003,-0.70752,-0.69922;
18:50:28.921,-0.02954,-0.71045,-0.69702;
18:50:28.931,-0.03027,-0.70825,-0.69971;
18:50:28.941,-0.03174,-0.70850,-0.70068;
18:50:28.951,-0.03271,-0.71069,-0.70068;
18:50:28.961,-0.03198,-0.71216,-0.70264;
18:50:28.971,-0.03076,-0.71045,-0.69995;
18:50:28.981,-0.03149,-0.70581,-0.70239;
18:50:28.991,-0.03052,-0.71240,-0.70142;
18:50:29.001,-0.02954,-0.71460,-0.69727;
18:50:29.011,-0.02832,-0.71143,-0.69800;
18:50:29.021,-0.02905,-0.70923,-0.69873;
18:50:29.031,-0.03027,-0.70752,-0.69775;
18:50:29.041,-0.02783,-0.71240,-0.69897;
18:50:29.051,-0.02783,-0.71387,-0.70020;
18:50:29.061,-0.02905,-0.71167,-0.69458;
18:50:29.071,-0.02832,-0.71387,-0.69507;
18:50:29.081,-0.02783,-0.71680,-0.69580;
18:50:29.091,-0.02905,-0.71411,-0.69141;
18:50:29.101,-0.02954,-0.71362,-0.69458;
18:50:29.111,-0.02930,-0.71558,-0.69507;
18:50:29.121,-0.02856,-0.71533,-0.69360;
18:50:29.131,-0.03027,-0.71411,-0.69702;
18:50:29.141,-0.03027,-0.71436,-0.69629;
18:50:29.151,-0.03027,-0.71387,-0.69336;
18:50:29.161,-0.03174,-0.71387,-0.69531;
18:50:29.171,-0.03101,-0.71069,-0.69678;
18:50:29.181,-0.03076,-0.70728,-0.70020;
18:50:29.191,-0.03076,-0.71216,-0.69751;
18:50:29.201,-0.02930,-0.71289,-0.69531;
18:50:29.211,-0.02905,-0.71411,-0.69702;
18:50:29.221,-0.03027,-0.71411,-0.69580;
18:50:29.231,-0.03027,-0.71240,-0.69629;
18:50:29.241,-0.03076,-0.71265,-0.69360;
18:50:29.251,-0.03101,-0.71387,-0.69702;
18:50:29.261,-0.03027,-0.71436,-0.69507;
18:50:29.271,-0.03125,-0.71387,-0.69287;
18:50:29.281,-0.03149,-0.71460,-0.69653;
18:50:29.291,-0.03076,-0.71606,-0.69263;
18:50:29.301,-0.03027,-0.71729,-0.69458;
18:50:29.311,-0.03003,-0.71436,-0.69580;
18:50:29.321,-0.03101,-0.71313,-0.69458;
18:50:29.331,-0.03027,-0.71777,-0.69312;
18:50:29.341,-0.03149,-0.71802,-0.69287;
18:50:29.351,-0.02954,-0.71533,-0.69751;
18:50:29.361,-0.02954,-0.71533,-0.69775;
18:50:29.371,-0.03125,-0.71558,-0.69531;
18:50:29.381,-0.02832,-0.71606,-0.69531;
18:50:29.391,-0.02905,-0.71606,-0.69165;
18:50:29.401,-0.02832,-0.71411,-0.69263;
18:50:29.411,-0.02881,-0.71509,-0.69482;
18:50:29.421,-0.02979,-0.71387,-0.69629;
18:50:29.431,-0.02954,-0.70972,-0.69946;
18:50:29.441,-0.03101,-0.71069,-0.69824;
18:50:29.451,-0.03125,-0.71289,-0.69849;
18:50:29.461,-0.03027,-0.71387,-0.69849;
18:50:29.471,-0.02979,-0.71143,-0.69678;
18:50:29.481,-0.03125,-0.71021,-0.69995;
18:50:29.491,-0.03149,-0.70898,-0.69824;
18:50:29.501,-0.02930,-0.70850,-0.69824;
18:50:29.511,-0.02783,-0.70947,-0.70117;
18:50:29.521,-0.02710,-0.70898,-0.70142;
18:50:29.531,-0.02954,-0.70801,-0.70166;
18:50:29.541,-0.03247,-0.70728,-0.70068;
18:50:29.551,-0.03125,-0.70825,-0.70264;
18:50:29.561,-0.02930,-0.70850,-0.70215;
18:50:29.571,-0.02954,-0.71143,-0.70142;
18:50:29.581,-0.03052,-0.71240,-0.70166;
18:50:29.591,-0.03198,-0.70703,-0.70215;
18:50:29.601,-0.03149,-0.70557,-0.70020;
18:50:29.611,-0.03198,-0.70825,-0.70166;
18:50:29.621,-0.03125,-0.70728,-0.70142;
18:50:29.631,-0.03052,-0.71021,-0.70020;
18:50:29.641,-0.03101,-0.70947,-0.69995;
18:50:29.651,-0.03101,-0.71094,-0.69800;
18:50:29.661,-0.03101,-0.71167,-0.69922;
18:50:29.671,-0.03076,-0.71143,-0.69702;
18:50:29.681,-0.03076,-0.71143,-0.70190;
18:50:29.691,-0.03149,-0.71045,-0.69995;
18:50:29.701,-0.03052,-0.71021,-0.69897;
18:50:29.711,-0.03076,-0.71021,-0.70117;
18:50:29.721,-0.03027,-0.70923,-0.69775;
18:50:29.731,-0.03076,-0.70996,-0.70093;
18:50:29.741,-0.03027,-0.71118,-0.70264;
18:50:29.751,-0.03003,-0.70679,-0.70093;
18:50:29.761,-0.03125,-0.70483,-0.70215;
18:50:29.771,-0.03149,-0.70776,-0.70361;
18:50:29.781,-0.03125,-0.70728,-0.70264;
18:50:29.791,-0.03125,-0.70557,-0.70361;
18:50:29.801,-0.03174,-0.70728,-0.70288;
18:50:29.811,-0.03052,-0.70776,-0.70288;
18:50:29.821,-0.03149,-0.70679,-0.70508;
18:50:29.831,-0.03027,-0.70483,-0.70313;
18:50:29.841,-0.03027,-0.70801,-0.70166;
18:50:29.851,-0.02979,-0.70850,-0.70239;
18:50:29.861,-0.02930,-0.70898,-0.70020;
18:50:29.871,-0.03076,-0.70923,-0.70068;
18:50:29.881,-0.03027,-0.70874,-0.70142;
18:50:29.891,-0.03101,-0.70874,-0.69946;
18:50:29.901,-0.03027,-0.70581,-0.69995;
18:50:29.911,-0.02881,-0.70874,-0.70093;
18:50:29.921,-0.03027,-0.71021,-0.70117;
18:50:29.931,-0.03027,-0.70947,-0.70215;
18:50:29.941,-0.03027,-0.70874,-0.70068;
18:50:29.951,-0.02930,-0.70752,-0.70068;
18:50:29.961,-0.02905,-0.70801,-0.70044;
18:50:29.971,-0.02979,-0.70801,-0.70068;
18:50:29.981,-0.02832,-0.70801,-0.70435;
18:50:29.991,-0.02905,-0.70752,-0.70166;
18:50:30.001,-0.03052,-0.70728,-0.70435;
18:50:30.011,-0.03101,-0.70898,-0.70264;
18:50:30.021,-0.03149,-0.71069,-0.70313;
18:50:30.031,-0.03101,-0.70850,-0.70215;
18:50:30.041,-0.03027,-0.70947,-0.69995;
18:50:30.051,-0.02979,-0.71021,-0.70093;
18:50:30.061,-0.03125,-0.70850,-0.70142;
18:50:30.071,-0.03101,-0.71021,-0.70190;
18:50:30.081,-0.02954,-0.70996,-0.70215;
18:50:30.091,-0.02930,-0.70947,-0.70166;
18:50:30.101,-0.02930,-0.71069,-0.69849;
18:50:30.111,-0.02832,-0.71069,-0.69800;
18:50:30.121,-0.02905,-0.71143,-0.69922;
18:50:30.131,-0.03052,-0.71069,-0.70142;
18:50:30.141,-0.03027,-0.71118,-0.70117;
18:50:30.151,-0.03125,-0.71167,-0.69995;
18:50:30.161,-0.02979,-0.71338,-0.69727;
18:50:30.171,-0.03052,-0.71436,-0.69678;
18:50:30.181,-0.03296,-0.71460,-0.69434;
18:50:30.191,-0.03125,-0.71362,-0.69531;
18:50:30.201,-0.03052,-0.71289,-0.69971;
18:50:30.211,-0.02832,-0.71265,-0.69897;
18:50:30.221,-0.03076,-0.70947,-0.69580;
18:50:30.231,-0.02832,-0.71338,-0.69531;
18:50:30.241,-0.02759,-0.71484,-0.69824;
18:50:30.251,-0.02954,-0.71460,-0.69702;
18:50:30.261,-0.02881,-0.71191,-0.69873;
18:50:30.271,-0.03149,-0.71265,-0.69922;
18:50:30.281,-0.03076,-0.71118,-0.69775;
18:50:30.291,-0.03003,-0.71045,-0.69629;
18:50:30.301,-0.03027,-0.71240,-0.69849;
18:50:30.311,-0.02856,-0.71069,-0.69849;
18:50:30.321,-0.02881,-0.71191,-0.70117;
18:50:30.331,-0.03052,-0.71118,-0.69751;
18:50:30.341,-0.03003,-0.71240,-0.69653;
18:50:30.351,-0.03003,-0.71313,-0.69922;
18:50:30.361,-0.03027,-0.71387,-0.69702;
18:50:30.371,-0.02954,-0.71216,-0.69653;
18:50:30.381,-0.02832,-0.71240,-0.69775;
18:50:30.391,-0.03052,-0.71069,-0.69995;
18:50:30.401,-0.03027,-0.70874,-0.69946;
18:50:30.411,-0.02979,-0.71216,-0.69824;
18:50:30.421,-0.03003,-0.71191,-0.69751;
18:50:30.431,-0.02979,-0.70728,-0.69702;
18:50:30.441,-0.03076,-0.70996,-0.69897;
18:50:30.451,-0.03052,-0.71045,-0.70190;
18:50:30.461,-0.02954,-0.70801,-0.69922;
18:50:30.471,-0.02905,-0.70923,-0.69751;
18:50:30.481,-0.02905,-0.71045,-0.69824;
18:50:30.491,-0.03052,-0.71045,-0.69897;
18:50:30.501,-0.02905,-0.70850,-0.69946;
18:50:30.511,-0.02979,-0.70313,-0.70532;
18:50:30.521,-0.02930,-0.70605,-0.70435;
18:50:30.531,-0.03076,-0.70654,-0.70264;
18:50:30.541,-0.03101,-0.70459,-0.70264;
18:50:30.551,-0.03149,-0.70654,-0.70142;
18:50:30.561,-0.03101,-0.70728,-0.70361;
18:50:30.571,-0.03149,-0.70874,-0.70166;
18:50:30.581,-0.03003,-0.70874,-0.70117;
18:50:30.591,-0.02930,-0.70898,-0.70459;
18:50:30.601,-0.03003,-0.71094,-0.69971;
18:50:30.611,-0.02881,-0.71069,-0.69824;
18:50:30.621,-0.03003,-0.71069,-0.70093;
18:50:30.631,-0.02979,-0.71021,-0.69995;
18:50:30.641,-0.02954,-0.70947,-0.70093;
18:50:30.651,-0.02905,-0.70947,-0.70093;
18:50:30.661,-0.02979,-0.70752,-0.70239;
18:50:30.671,-0.02881,-0.70923,-0.69995;
18:50:30.681,-0.02734,-0.71045,-0.70117;
18:50:30.691,-0.02783,-0.70923,-0.69824;
18:50:30.701,-0.02783,-0.71021,-0.69727;
18:50:30.711,-0.02734,-0.70825,-0.69995;
18:50:30.721,-0.02710,-0.70923,-0.69922;
18:50:30.731,-0.02686,-0.71021,-0.70068;
18:50:30.741,-0.02686,-0.70850,-0.70044;
18:50:30.751,-0.02734,-0.70752,-0.70068;
18:50:30.761,-0.02783,-0.70850,-0.69922;
18:50:30.771,-0.02832,-0.70874,-0.70215;
18:50:30.781,-0.02979,-0.70728,-0.70337;
18:50:30.791,-0.02881,-0.70728,-0.70117;
18:50:30.801,-0.02856,-0.70703,-0.70142;
18:50:30.811,-0.02856,-0.70752,-0.70166;
18:50:30.821,-0.02881,-0.70703,-0.70117;
18:50:30.831,-0.02808,-0.70410,-0.70190;
18:50:30.841,-0.02734,-0.70508,-0.70313;
18:50:30.851,-0.02710,-0.70850,-0.70020;
18:50:30.861,-0.02686,-0.70825,-0.70020;
18:50:30.871,-0.02808,-0.70752,-0.70435;
18:50:30.881,-0.02881,-0.70728,-0.70483;
18:50:30.891,-0.02930,-0.70776,-0.70410;
18:50:30.901,-0.02759,-0.70825,-0.70020;
18:50:30.911,-0.02734,-0.70776,-0.69971;
18:50:30.921,-0.02881,-0.70825,-0.70117;
18:50:30.931,-0.02856,-0.70728,-0.70215;
18:50:30.941,-0.02856,-0.70679,-0.70166;
18:50:30.951,-0.02905,-0.70630,-0.70166;
18:50:30.961,-0.02832,-0.70557,-0.70215;
18:50:30.971,-0.02930,-0.70605,-0.70142;
18:50:30.981,-0.02808,-0.70703,-0.70264;
18:50:30.991,-0.02759,-0.70654,-0.70581;
18:50:31.001,-0.02783,-0.70752,-0.70630;
18:50:31.011,-0.02710,-0.70581,-0.70361;
18:50:31.021,-0.02588,-0.70532,-0.70361;
18:50:31.031,-0.02612,-0.70728,-0.70264;
18:50:31.041,-0.02637,-0.70654,-0.69897;
18:50:31.051,-0.02563,-0.70923,-0.70068;
18:50:31.061,-0.02734,-0.70996,-0.70166;
18:50:31.071,-0.02686,-0.70874,-0.70020;
18:50:31.081,-0.02710,-0.70801,-0.70190;
18:50:31.091,-0.02710,-0.71021,-0.70410;
18:50:31.101,-0.02686,-0.70654,-0.70264;
18:50:31.111,-0.02881,-0.70508,-0.70264;
18:50:31.121,-0.02759,-0.70630,-0.70361;
18:50:31.131,-0.02637,-0.70410,-0.70190;
18:50:31.141,-0.02612,-0.70459,-0.70239;
18:50:31.151,-0.02710,-0.70483,-0.70361;
18:50:31.161,-0.02710,-0.70483,-0.70288;
18:50:31.171,-0.02783,-0.70532,-0.70313;
18:50:31.181,-0.02759,-0.70459,-0.70215;
18:50:31.191,-0.02832,-0.70801,-0.70386;
18:50:31.201,-0.02832,-0.70850,-0.70386;
18:50:31.211,-0.02734,-0.70850,-0.70361;
18:50:31.221,-0.02808,-0.70679,-0.70288;
18:50:31.231,-0.02686,-0.70752,-0.70410;
18:50:31.241,-0.02661,-0.70679,-0.70361;
18:50:31.251,-0.02759,-0.70703,-0.70117;
18:50:31.261,-0.02783,-0.70557,-0.70337;
18:50:31.271,-0.02930,-0.70337,-0.70386;
18:50:31.281,-0.02856,-0.70679,-0.70239;
18:50:31.291,-0.02588,-0.70605,-0.70166;
18:50:31.301,-0.02734,-0.70801,-0.70190;
18:50:31.311,-0.02612,-0.70825,-0.70215;
18:50:31.321,-0.02539,-0.70703,-0.70264;
18:50:31.331,-0.02661,-0.70703,-0.70239;
18:50:31.341,-0.02686,-0.70654,-0.70557;
18:50:31.351,-0.02661,-0.70581,-0.70483;
18:50:31.361,-0.02637,-0.70581,-0.70483;
18:50:31.371,-0.02637,-0.70532,-0.70459;
18:50:31.381,-0.02539,-0.70264,-0.70215;
18:50:31.391,-0.02734,-0.70361,-0.70508;
18:50:31.401,-0.02734,-0.70361,-0.70410;
18:50:31.411,-0.02612,-0.70337,-0.70435;
18:50:31.421,-0.02686,-0.70288,-0.70435;
18:50:31.431,-0.02539,-0.70386,-0.70337;
18:50:31.441,-0.02905,-0.70508,-0.70410;
18:50:31.451,-0.03027,-0.70239,-0.70557;
18:50:31.461,-0.02856,-0.70386,-0.70337;
18:50:31.471,-0.02808,-0.70459,-0.70410;
18:50:31.481,-0.02539,-0.70337,-0.70459;
18:50:31.491,-0.02588,-0.70508,-0.70142;
18:50:31.501,-0.02539,-0.70703,-0.70508;
18:50:31.511,-0.02490,-0.70483,-0.70850;
18:50:31.521,-0.02637,-0.70630,-0.70483;
18:50:31.531,-0.02539,-0.70703,-0.70337;
18:50:31.541,-0.02637,-0.70654,-0.70532;
18:50:31.551,-0.02661,-0.70410,-0.70581;
18:50:31.561,-0.02710,-0.70166,-0.70459;
18:50:31.571,-0.03003,-0.70044,-0.70508;
18:50:31.581,-0.03027,-0.70068,-0.70581;
18:50:31.591,-0.03052,-0.70142,-0.70508;
18:50:31.601,-0.03052,-0.69873,-0.70483;
18:50:31.611,-0.02979,-0.70020,-0.70654;
18:50:31.621,-0.02881,-0.70313,-0.70679;
18:50:31.631,-0.02563,-0.70508,-0.70605;
18:50:31.641,-0.02588,-0.70361,-0.70337;
18:50:31.651,-0.02783,-0.70386,-0.70337;
18:50:31.661,-0.02783,-0.70313,-0.70361;
18:50:31.671,-0.02954,-0.70386,-0.70654;
18:50:31.681,-0.02783,-0.70068,-0.70483;
18:50:31.691,-0.02783,-0.70215,-0.70605;
18:50:31.701,-0.02832,-0.70166,-0.70679;
18:50:31.711,-0.02734,-0.70093,-0.70679;
18:50:31.721,-0.02783,-0.70166,-0.70239;
18:50:31.731,-0.02783,-0.70313,-0.70361;
18:50:31.741,-0.02710,-0.70410,-0.70459;
18:50:31.751,-0.02759,-0.70264,-0.70508;
18:50:31.761,-0.02832,-0.70435,-0.70459;
18:50:31.771,-0.02661,-0.70679,-0.70435;
18:50:31.781,-0.02637,-0.70313,-0.70557;
18:50:31.791,-0.02710,-0.70361,-0.70386;
18:50:31.801,-0.02637,-0.70654,-0.70605;
18:50:31.811,-0.02515,-0.70605,-0.70288;
18:50:31.821,-0.02612,-0.70508,-0.70264;
18:50:31.831,-0.02490,-0.70752,-0.70557;
18:50:31.841,-0.02539,-0.70874,-0.70288;
18:50:31.851,-0.02710,-0.70776,-0.70435;
18:50:31.861,-0.02686,-0.70630,-0.70508;
18:50:31.871,-0.02783,-0.70435,-0.70410;
18:50:31.881,-0.02759,-0.70679,-0.70459;
18:50:31.891,-0.02930,-0.70605,-0.70313;
18:50:31.901,-0.02832,-0.70313,-0.70361;
18:50:31.911,-0.02905,-0.70361,-0.70386;
18:50:31.921,-0.02856,-0.70508,-0.70313;
18:50:31.931,-0.02637,-0.70630,-0.70264;
18:50:31.941,-0.02783,-0.70605,-0.70508;
18:50:31.951,-0.02979,-0.70532,-0.70435;
18:50:31.961,-0.02930,-0.70557,-0.70337;
18:50:31.971,-0.02783,-0.70703,-0.70508;
18:50:31.981,-0.02759,-0.70386,-0.70410;
18:50:31.991,-0.02734,-0.70386,-0.70483;
18:50:32.001,-0.02710,-0.70435,-0.70508;
18:50:32.011,-0.02930,-0.70313,-0.70654;
18:50:32.021,-0.02881,-0.70215,-0.70459;
18:50:32.031,-0.02905,-0.70044,-0.70459;
18:50:32.041,-0.03003,-0.70166,-0.70630;
18:50:32.051,-0.02832,-0.70142,-0.70776;
18:50:32.061,-0.02856,-0.70337,-0.70801;
18:50:32.071,-0.02808,-0.70264,-0.70752;
18:50:32.081,-0.02710,-0.70142,-0.70776;
18:50:32.091,-0.02710,-0.70410,-0.70435;
18:50:32.101,-0.02808,-0.70581,-0.70679;
18:50:32.111,-0.02783,-0.70386,-0.70557;
18:50:32.121,-0.02734,-0.70532,-0.70361;
18:50:32.131,-0.02832,-0.70630,-0.70654;
18:50:32.141,-0.02930,-0.70508,-0.70313;
18:50:32.151,-0.02954,-0.70459,-0.70264;
18:50:32.161,-0.02759,-0.70386,-0.70557;
18:50:32.171,-0.02954,-0.70557,-0.70386;
18:50:32.181,-0.02881,-0.70508,-0.70435;
18:50:32.191,-0.02856,-0.70410,-0.70337;
18:50:32.201,-0.02979,-0.70654,-0.70361;
18:50:32.211,-0.02759,-0.70654,-0.70581;
18:50:32.221,-0.02734,-0.70679,-0.70093;
18:50:32.231,-0.02686,-0.70605,-0.70361;
18:50:32.241,-0.02808,-0.70361,-0.70679;
18:50:32.251,-0.02954,-0.70483,-0.70581;
18:50:32.261,-0.03003,-0.70435,-0.70435;
18:50:32.271,-0.02832,-0.70361,-0.70581;
18:50:32.281,-0.02710,-0.70337,-0.70581;
18:50:32.291,-0.02637,-0.70386,-0.70630;
18:50:32.301,-0.02832,-0.70337,-0.70386;
18:50:32.311,-0.02808,-0.70532,-0.70557;
18:50:32.321,-0.02783,-0.70605,-0.70166;
18:50:32.331,-0.02710,-0.70459,-0.70410;
18:50:32.341,-0.02637,-0.70508,-0.70459;
18:50:32.351,-0.02637,-0.70728,-0.70386;
18:50:32.361,-0.02539,-0.70825,-0.70557;
18:50:32.371,-0.02734,-0.70630,-0.70410;
18:50:32.381,-0.02734,-0.70483,-0.70508;
18:50:32.391,-0.02783,-0.70508,-0.70605;
18:50:32.401,-0.02783,-0.70630,-0.70313;
18:50:32.411,-0.02686,-0.70508,-0.70361;
18:50:32.421,-0.02832,-0.70435,-0.70557;
18:50:32.431,-0.02856,-0.70459,-0.70630;
18:50:32.441,-0.02588,-0.70288,-0.70483;
18:50:32.451,-0.02734,-0.70410,-0.70386;
18:50:32.461,-0.02856,-0.70361,-0.70410;
18:50:32.471,-0.02832,-0.70581,-0.70532;
18:50:32.481,-0.02808,-0.70508,-0.70630;
18:50:32.491,-0.02686,-0.70166,-0.70630;
18:50:32.501,-0.02856,-0.70142,-0.70483;
18:50:32.511,-0.02905,-0.70435,-0.70410;
18:50:32.521,-0.02881,-0.70483,-0.70679;
18:50:32.531,-0.02686,-0.70386,-0.70459;
18:50:32.541,-0.02856,-0.70459,-0.70386;
18:50:32.551,-0.02832,-0.70508,-0.70288;
18:50:32.561,-0.02686,-0.70581,-0.70239;
18:50:32.571,-0.02783,-0.70459,-0.70337;
18:50:32.581,-0.02734,-0.70532,-0.70386;
18:50:32.591,-0.02710,-0.70435,-0.70386;
18:50:32.601,-0.02637,-0.70386,-0.70288;
18:50:32.611,-0.02808,-0.70532,-0.70654;
18:50:32.621,-0.02954,-0.70508,-0.70581;
18:50:32.631,-0.02808,-0.70508,-0.70557;
18:50:32.641,-0.02759,-0.70313,-0.70410;
18:50:32.651,-0.02856,-0.70386,-0.70630;
18:50:32.661,-0.02832,-0.70557,-0.70483;
18:50:32.671,-0.02856,-0.70190,-0.70410;
18:50:32.681,-0.02856,-0.70361,-0.70483;
18:50:32.691,-0.02881,-0.70190,-0.70361;
18:50:32.701,-0.02930,-0.70215,-0.70679;
18:50:32.711,-0.02856,-0.70239,-0.70435;
18:50:32.721,-0.02783,-0.70410,-0.70410;
18:50:32.731,-0.02783,-0.70410,-0.70752;
18:50:32.741,-0.02930,-0.69971,-0.70557;
18:50:32.751,-0.02856,-0.70142,-0.70605;
18:50:32.761,-0.02930,-0.70264,-0.70923;
18:50:32.771,-0.02930,-0.70386,-0.70679;
18:50:32.781,-0.02954,-0.70337,-0.70630;
18:50:32.791,-0.03052,-0.70142,-0.70654;
18:50:32.801,-0.03052,-0.70142,-0.70532;
18:50:32.811,-0.03052,-0.70288,-0.70361;
18:50:32.821,-0.02930,-0.70142,-0.70557;
18:50:32.831,-0.03027,-0.70166,-0.70752;
18:50:32.841,-0.03027,-0.70068,-0.70825;
18:50:32.851,-0.02930,-0.70264,-0.70703;
18:50:32.861,-0.02905,-0.70532,-0.70679;
18:50:32.871,-0.02905,-0.70557,-0.70752;
18:50:32.881,-0.02808,-0.70459,-0.70605;
18:50:32.891,-0.02881,-0.70117,-0.70410;
18:50:32.901,-0.02832,-0.70337,-0.70557;
18:50:32.911,-0.02856,-0.70215,-0.70630;
18:50:32.921,-0.02783,-0.70288,-0.70313;
18:50:32.931,-0.02832,-0.70264,-0.70679;
18:50:32.941,-0.02808,-0.70239,-0.70605;
18:50:32.951,-0.02856,-0.70239,-0.70728;
18:50:32.961,-0.02930,-0.70435,-0.70752;
18:50:32.971,-0.02881,-0.70215,-0.70703;
18:50:32.981,-0.02759,-0.70215,-0.70874;
18:50:32.991,-0.02881,-0.70117,-0.70654;
18:50:33.001,-0.02832,-0.70190,-0.70483;
18:50:33.011,-0.02856,-0.70288,-0.70850;
18:50:33.021,-0.02905,-0.70215,-0.70679;
18:50:33.031,-0.02759,-0.69971,-0.70654;
18:50:33.041,-0.02930,-0.70215,-0.70459;
18:50:33.051,-0.02808,-0.70190,-0.70654;
18:50:33.061,-0.02759,-0.70215,-0.70703;
18:50:33.071,-0.02808,-0.70190,-0.70557;
18:50:33.081,-0.02832,-0.70142,-0.70581;
18:50:33.091,-0.03003,-0.70166,-0.70654;
18:50:33.101,-0.02832,-0.70020,-0.70776;
18:50:33.111,-0.02808,-0.70068,-0.70557;
18:50:33.121,-0.02954,-0.70483,-0.70581;
18:50:33.131,-0.02856,-0.70410,-0.70703;
18:50:33.141,-0.02734,-0.70239,-0.70728;
18:50:33.151,-0.02856,-0.70166,-0.70532;
18:50:33.161,-0.02832,-0.70142,-0.70386;
18:50:33.171,-0.02759,-0.70264,-0.70630;
18:50:33.181,-0.02808,-0.70239,-0.70581;
18:50:33.191,-0.02808,-0.70386,-0.70483;
18:50:33.201,-0.02881,-0.70093,-0.70508;
18:50:33.211,-0.02930,-0.70239,-0.70654;
18:50:33.221,-0.02710,-0.70239,-0.70483;
18:50:33.231,-0.02759,-0.70093,-0.70459;
18:50:33.241,-0.02905,-0.70483,-0.70532;
18:50:33.251,-0.02856,-0.70361,-0.70508;
18:50:33.261,-0.02856,-0.70459,-0.70435;
18:50:33.271,-0.02734,-0.70483,-0.70239;
18:50:33.281,-0.02759,-0.70337,-0.70386;
18:50:33.291,-0.02759,-0.70142,-0.70166;
18:50:33.301,-0.02783,-0.70337,-0.70386;
18:50:33.311,-0.02856,-0.70435,-0.70630;
18:50:33.321,-0.02856,-0.70239,-0.70410;
18:50:33.331,-0.02856,-0.70190,-0.70679;
18:50:33.341,-0.02783,-0.70313,-0.70508;
18:50:33.351,-0.02832,-0.70313,-0.70386;
18:50:33.361,-0.02905,-0.70337,-0.70264;
18:50:33.371,-0.02783,-0.70337,-0.70459;
18:50:33.381,-0.02856,-0.70190,-0.70557;
18:50:33.391,-0.02783,-0.70337,-0.70557;
18:50:33.401,-0.02783,-0.70313,-0.70435;
18:50:33.411,-0.02881,-0.70337,-0.70410;
18:50:33.421,-0.02856,-0.70410,-0.70630;
18:50:33.431,-0.02856,-0.70410,-0.70728;
18:50:33.441,-0.03027,-0.70386,-0.70874;
18:50:33.451,-0.02808,-0.70508,-0.70435;
18:50:33.461,-0.02612,-0.70288,-0.70557;
18:50:33.471,-0.02808,-0.70093,-0.70605;
18:50:33.481,-0.02783,-0.70239,-0.70288;
18:50:33.491,-0.02808,-0.70288,-0.70361;
18:50:33.501,-0.02808,-0.70190,-0.70605;
18:50:33.511,-0.02881,-0.70215,-0.70605;
18:50:33.521,-0.02783,-0.70288,-0.70581;
18:50:33.531,-0.02734,-0.70190,-0.70386;
18:50:33.541,-0.02710,-0.70386,-0.70508;
18:50:33.551,-0.02783,-0.70337,-0.70605;
18:50:33.561,-0.02881,-0.70508,-0.70410;
18:50:33.571,-0.02856,-0.70288,-0.70239;
18:50:33.581,-0.02832,-0.70166,-0.70508;
18:50:33.591,-0.02808,-0.70605,-0.70264;
18:50:33.601,-0.02930,-0.70313,-0.70605;
18:50:33.611,-0.02930,-0.70361,-0.70801;
18:50:33.621,-0.02881,-0.70557,-0.70679;
18:50:33.631,-0.02856,-0.70337,-0.70605;
18:50:33.641,-0.02808,-0.70337,-0.70703;
18:50:33.651,-0.02808,-0.70557,-0.70483;
18:50:33.661,-0.02856,-0.70532,-0.70532;
18:50:33.671,-0.03027,-0.70410,-0.70679;
18:50:33.681,-0.02881,-0.70117,-0.70532;
18:50:33.691,-0.02783,-0.70264,-0.70483;
18:50:33.701,-0.02905,-0.70239,-0.70410;
18:50:33.711,-0.02856,-0.70361,-0.70459;
18:50:33.721,-0.02856,-0.70410,-0.70557;
18:50:33.731,-0.02808,-0.70142,-0.70776;
18:50:33.741,-0.02808,-0.70386,-0.70679;
18:50:33.751,-0.02832,-0.70142,-0.70410;
18:50:33.761,-0.02856,-0.70117,-0.70483;
18:50:33.771,-0.02905,-0.70190,-0.70874;
18:50:33.781,-0.02856,-0.70215,-0.70703;
18:50:33.791,-0.02930,-0.70093,-0.70459;
18:50:33.801,-0.02832,-0.70215,-0.70508;
18:50:33.811,-0.02759,-0.70337,-0.70557;
18:50:33.821,-0.02808,-0.70190,-0.70386;
18:50:33.831,-0.02734,-0.70117,-0.70410;
18:50:33.841,-0.02905,-0.70410,-0.70459;
18:50:33.851,-0.02832,-0.70215,-0.70557;
18:50:33.861,-0.02856,-0.70264,-0.70459;
18:50:33.871,-0.02881,-0.70532,-0.70508;
18:50:33.881,-0.02808,-0.70435,-0.70483;
18:50:33.891,-0.02905,-0.70508,-0.70386;
18:50:33.901,-0.02979,-0.70288,-0.70532;
18:50:33.911,-0.02930,-0.70264,-0.70557;
18:50:33.921,-0.02661,-0.70264,-0.70679;
18:50:33.931,-0.02856,-0.70337,-0.70557;
18:50:33.941,-0.02783,-0.70459,-0.70264;
18:50:33.951,-0.02686,-0.70190,-0.70337;
18:50:33.961,-0.02856,-0.70020,-0.70630;
18:50:33.971,-0.02759,-0.69995,-0.70605;
18:50:33.981,-0.02710,-0.70215,-0.70679;
18:50:33.991,-0.02905,-0.70410,-0.70728;
18:50:34.001,-0.02808,-0.70386,-0.70605;
18:50:34.011,-0.02832,-0.70361,-0.70605;
18:50:34.021,-0.02832,-0.70264,-0.70703;
18:50:34.031,-0.02808,-0.70264,-0.70703;
18:50:34.041,-0.02979,-0.70361,-0.70728;
18:50:34.051,-0.02954,-0.70093,-0.70654;
18:50:34.061,-0.02979,-0.70044,-0.70728;
18:50:34.071,-0.02808,-0.70215,-0.70605;
18:50:34.081,-0.02759,-0.70337,-0.70435;
18:50:34.091,-0.02930,-0.70410,-0.70410;
18:50:34.101,-0.02979,-0.70288,-0.70605;
18:50:34.111,-0.02905,-0.70508,-0.70679;
18:50:34.121,-0.02954,-0.70532,-0.70605;
18:50:34.131,-0.03101,-0.70508,-0.70654;
18:50:34.141,-0.02930,-0.70386,-0.70459;
18:50:34.151,-0.02832,-0.70410,-0.70483;
18:50:34.161,-0.02905,-0.70532,-0.70581;
18:50:34.171,-0.02710,-0.70166,-0.70654;
18:50:34.181,-0.02954,-0.70215,-0.70410;
18:50:34.191,-0.02954,-0.70093,-0.70386;
18:50:34.201,-0.02979,-0.70264,-0.70386;
18:50:34.211,-0.02808,-0.70068,-0.70532;
18:50:34.221,-0.02832,-0.70264,-0.70825;
18:50:34.231,-0.02856,-0.70337,-0.70581;
18:50:34.241,-0.02808,-0.70239,-0.70337;
18:50:34.251,-0.02661,-0.70190,-0.70483;
18:50:34.261,-0.02661,-0.70264,-0.70410;
18:50:34.271,-0.02954,-0.70410,-0.70581;
18:50:34.281,-0.02856,-0.70215,-0.70825;
18:50:34.291,-0.02832,-0.70483,-0.70703;
18:50:34.301,-0.02881,-0.70313,-0.70654;
18:50:34.311,-0.02832,-0.70142,-0.70581;
18:50:34.321,-0.02759,-0.70386,-0.70679;
18:50:34.331,-0.02881,-0.70337,-0.70703;
18:50:34.341,-0.03003,-0.70313,-0.70532;
18:50:34.351,-0.02881,-0.70264,-0.70459;
18:50:34.361,-0.02930,-0.70361,-0.70361;
18:50:34.371,-0.02930,-0.70337,-0.70703;
18:50:34.381,-0.02881,-0.70386,-0.70630;
18:50:34.391,-0.02930,-0.70435,-0.70313;
18:50:34.401,-0.02930,-0.70483,-0.70532;
18:50:34.411,-0.02954,-0.70386,-0.70605;
18:50:34.421,-0.02930,-0.70532,-0.70483;
18:50:34.431,-0.02905,-0.70532,-0.70410;
18:50:34.441,-0.02881,-0.70239,-0.70410;
18:50:34.451,-0.03003,-0.69946,-0.70435;
18:50:34.461,-0.02905,-0.69971,-0.70728;
18:50:34.471,-0.02856,-0.70190,-0.70752;
18:50:34.481,-0.02979,-0.70215,-0.70850;
18:50:34.491,-0.03003,-0.70190,-0.70923;
18:50:34.501,-0.02954,-0.70020,-0.70850;
18:50:34.511,-0.03027,-0.70190,-0.70703;
18:50:34.521,-0.03003,-0.70264,-0.70801;
18:50:34.531,-0.02783,-0.70215,-0.70630;
18:50:34.541,-0.02979,-0.70459,-0.70679;
18:50:34.551,-0.02832,-0.70337,-0.70874;
18:50:34.561,-0.02856,-0.70508,-0.70459;
18:50:34.571,-0.02808,-0.70459,-0.70752;
18:50:34.581,-0.02783,-0.70435,-0.70801;
18:50:34.591,-0.02979,-0.70850,-0.70288;
18:50:34.601,-0.02930,-0.70630,-0.70288;
18:50:34.611,-0.02954,-0.70850,-0.70337;
18:50:34.621,-0.02881,-0.70630,-0.70508;
18:50:34.631,-0.02856,-0.70630,-0.70654;
18:50:34.641,-0.02832,-0.70947,-0.70483;
18:50:34.651,-0.02808,-0.70557,-0.70459;
18:50:34.661,-0.02783,-0.70410,-0.70654;
18:50:34.671,-0.02661,-0.70361,-0.70581;
18:50:34.681,-0.02881,-0.70605,-0.70581;
18:50:34.691,-0.02856,-0.70239,-0.70801;
18:50:34.701,-0.02808,-0.70288,-0.70850;
18:50:34.711,-0.02979,-0.70239,-0.70776;
18:50:34.721,-0.03101,-0.70166,-0.70703;
18:50:34.731,-0.03198,-0.69946,-0.70850;
18:50:34.741,-0.02905,-0.69995,-0.70996;
18:50:34.751,-0.02954,-0.69995,-0.70752;
18:50:34.761,-0.02930,-0.69946,-0.70605;
18:50:34.771,-0.02954,-0.69824,-0.71045;
18:50:34.781,-0.02881,-0.69995,-0.70898;
18:50:34.791,-0.02881,-0.69971,-0.70972;
18:50:34.801,-0.02856,-0.69922,-0.70923;
18:50:34.811,-0.02954,-0.69727,-0.70801;
18:50:34.821,-0.02808,-0.69824,-0.70850;
18:50:34.831,-0.02832,-0.69775,-0.70947;
18:50:34.841,-0.03027,-0.69800,-0.70923;
18:50:34.851,-0.02808,-0.70068,-0.70752;
18:50:34.861,-0.02759,-0.69995,-0.70850;
18:50:34.871,-0.02808,-0.70020,-0.70703;
18:50:34.881,-0.02856,-0.70093,-0.70703;
18:50:34.891,-0.02930,-0.70044,-0.70679;
18:50:34.901,-0.02930,-0.70117,-0.70752;
18:50:34.911,-0.02783,-0.70044,-0.70532;
18:50:34.921,-0.03052,-0.70166,-0.70605;
18:50:34.931,-0.03003,-0.70044,-0.70605;
18:50:34.941,-0.02881,-0.70117,-0.70508;
18:50:34.951,-0.02979,-0.70190,-0.70532;
18:50:34.961,-0.03003,-0.70239,-0.70654;
18:50:34.971,-0.02905,-0.70093,-0.70654;
18:50:34.981,-0.02905,-0.70093,-0.70776;
18:50:34.991,-0.02881,-0.70239,-0.70605;
18:50:35.001,-0.02832,-0.70068,-0.70728;
18:50:35.011,-0.03027,-0.70117,-0.71045;
18:50:35.021,-0.03149,-0.69995,-0.70850;
18:50:35.031,-0.03076,-0.70215,-0.70996;
18:50:35.041,-0.03027,-0.69751,-0.70898;
18:50:35.051,-0.03125,-0.69800,-0.70972;
18:50:35.061,-0.03003,-0.70020,-0.70972;
18:50:35.071,-0.03052,-0.69751,-0.70874;
18:50:35.081,-0.03149,-0.69751,-0.71021;
18:50:35.091,-0.02979,-0.69824,-0.71118;
18:50:35.101,-0.03027,-0.69824,-0.71021;
18:50:35.111,-0.02930,-0.69873,-0.70972;
18:50:35.121,-0.03003,-0.69971,-0.70996;
18:50:35.131,-0.03174,-0.70142,-0.70850;
18:50:35.141,-0.02979,-0.69922,-0.70630;
18:50:35.151,-0.02954,-0.69946,-0.70630;
18:50:35.161,-0.03027,-0.70020,-0.70825;
18:50:35.171,-0.03125,-0.69922,-0.70874;
18:50:35.181,-0.03101,-0.70142,-0.70703;
18:50:35.191,-0.02930,-0.69995,-0.70752;
18:50:35.201,-0.02979,-0.70068,-0.70825;
18:50:35.211,-0.03027,-0.70020,-0.70898;
18:50:35.221,-0.02979,-0.69849,-0.70972;
18:50:35.231,-0.03101,-0.69946,-0.70850;
18:50:35.241,-0.02930,-0.69922,-0.70801;
18:50:35.251,-0.02979,-0.69800,-0.70825;
18:50:35.261,-0.03027,-0.69897,-0.70874;
18:50:35.271,-0.03027,-0.69971,-0.70996;
18:50:35.281,-0.03076,-0.69751,-0.70972;
18:50:35.291,-0.02905,-0.69922,-0.70898;
18:50:35.301,-0.02930,-0.70044,-0.70898;
18:50:35.311,-0.02905,-0.69971,-0.70825;
18:50:35.321,-0.02832,-0.69629,-0.70703;
18:50:35.331,-0.02881,-0.69849,-0.70801;
18:50:35.341,-0.03027,-0.69995,-0.70923;
18:50:35.351,-0.02905,-0.69971,-0.70679;
18:50:35.361,-0.03052,-0.70044,-0.70898;
18:50:35.371,-0.03076,-0.70142,-0.70874;
18:50:35.381,-0.02832,-0.70020,-0.70947;
18:50:35.391,-0.02979,-0.70068,-0.70728;
18:50:35.401,-0.02954,-0.70215,-0.70801;
18:50:35.411,-0.02832,-0.70166,-0.70898;
18:50:35.421,-0.02832,-0.70239,-0.70850;
18:50:35.431,-0.02905,-0.70093,-0.70728;
18:50:35.441,-0.02856,-0.70093,-0.70801;
18:50:35.451,-0.02856,-0.70044,-0.70996;
18:50:35.461,-0.03052,-0.69922,-0.70850;
18:50:35.471,-0.02930,-0.69995,-0.70605;
18:50:35.481,-0.02881,-0.69946,-0.70557;
18:50:35.491,-0.02954,-0.70215,-0.70874;
18:50:35.501,-0.02954,-0.70239,-0.70679;
18:50:35.511,-0.02856,-0.70093,-0.70947;
18:50:35.521,-0.02905,-0.70264,-0.70630;
18:50:35.531,-0.03003,-0.70337,-0.70581;
18:50:35.541,-0.03052,-0.70068,-0.71021;
18:50:35.551,-0.02979,-0.70020,-0.70850;
18:50:35.561,-0.02979,-0.70068,-0.70947;
18:50:35.571,-0.02954,-0.69971,-0.70996;
18:50:35.581,-0.02954,-0.69995,-0.71094;
18:50:35.591,-0.02832,-0.69873,-0.70752;
18:50:35.601,-0.02808,-0.69995,-0.70825;
18:50:35.611,-0.03027,-0.69922,-0.70898;
18:50:35.621,-0.02954,-0.69897,-0.70923;
18:50:35.631,-0.03052,-0.69800,-0.70947;
18:50:35.641,-0.02905,-0.69897,-0.70898;
18:50:35.651,-0.02856,-0.70044,-0.70850;
18:50:35.661,-0.02930,-0.70044,-0.70898;
18:50:35.671,-0.02832,-0.70020,-0.70874;
18:50:35.681,-0.03052,-0.69702,-0.70801;
18:50:35.691,-0.02954,-0.69800,-0.71021;
18:50:35.701,-0.02905,-0.69849,-0.70898;
18:50:35.711,-0.03052,-0.70142,-0.71021;
18:50:35.721,-0.03027,-0.69946,-0.71021;
18:50:35.731,-0.03027,-0.69800,-0.70874;
18:50:35.741,-0.02930,-0.69946,-0.70874;
18:50:35.751,-0.03027,-0.70044,-0.70532;
18:50:35.761,-0.03052,-0.70044,-0.70898;
18:50:35.771,-0.03052,-0.70020,-0.70898;
18:50:35.781,-0.02979,-0.70215,-0.70483;
18:50:35.791,-0.03076,-0.69971,-0.70825;
18:50:35.801,-0.02954,-0.70190,-0.70996;
18:50:35.811,-0.02881,-0.70337,-0.70996;
18:50:35.821,-0.03076,-0.70215,-0.70996;
18:50:35.831,-0.03003,-0.70117,-0.70898;
18:50:35.841,-0.03076,-0.69897,-0.70850;
18:50:35.851,-0.03003,-0.69897,-0.70825;
18:50:35.861,-0.03149,-0.69971,-0.70898;
18:50:35.871,-0.03027,-0.69849,-0.71021;
18:50:35.881,-0.02930,-0.70142,-0.70923;
18:50:35.891,-0.02979,-0.70190,-0.70996;
18:50:35.901,-0.02954,-0.69873,-0.70605;
18:50:35.911,-0.02930,-0.69897,-0.70850;
18:50:35.921,-0.02881,-0.69946,-0.71069;
18:50:35.931,-0.02979,-0.69971,-0.70874;
18:50:35.941,-0.03003,-0.70044,-0.70776;
18:50:35.951,-0.03003,-0.70020,-0.71069;
18:50:35.961,-0.02808,-0.70020,-0.70825;
18:50:35.971,-0.02930,-0.70117,-0.71143;
18:50:35.981,-0.03052,-0.70044,-0.70923;
18:50:35.991,-0.03052,-0.70142,-0.70776;
18:50:36.001,-0.02954,-0.69995,-0.71216;
18:50:36.011,-0.02905,-0.69897,-0.71118;
18:50:36.021,-0.03052,-0.69946,-0.71167;
18:50:36.031,-0.02930,-0.69800,-0.71021;
18:50:36.041,-0.03003,-0.70044,-0.70752;
18:50:36.051,-0.03027,-0.69897,-0.70898;
18:50:36.061,-0.02930,-0.69800,-0.70996;
18:50:36.071,-0.03003,-0.69897,-0.71045;
18:50:36.081,-0.02881,-0.69995,-0.70996;
18:50:36.091,-0.02881,-0.69971,-0.70923;
18:50:36.101,-0.03076,-0.69873,-0.71021;
18:50:36.111,-0.03101,-0.69971,-0.71094;
18:50:36.121,-0.02979,-0.69971,-0.70850;
18:50:36.131,-0.03174,-0.69824,-0.70825;
18:50:36.141,-0.03125,-0.69849,-0.70825;
18:50:36.151,-0.03076,-0.69873,-0.70898;
18:50:36.161,-0.03076,-0.69971,-0.70923;
18:50:36.171,-0.03076,-0.69971,-0.70850;
18:50:36.181,-0.03076,-0.69946,-0.71045;
18:50:36.191,-0.02979,-0.69971,-0.70898;
18:50:36.201,-0.03052,-0.69873,-0.70874;
18:50:36.211,-0.03027,-0.69922,-0.71191;
18:50:36.221,-0.02881,-0.69897,-0.70898;
18:50:36.231,-0.03052,-0.70093,-0.70825;
18:50:36.241,-0.02905,-0.70044,-0.71069;
18:50:36.251,-0.02759,-0.69971,-0.71143;
18:50:36.261,-0.03052,-0.70068,-0.70996;
18:50:36.271,-0.02905,-0.69702,-0.70898;
18:50:36.281,-0.02808,-0.69751,-0.70825;
18:50:36.291,-0.02881,-0.70068,-0.70825;
18:50:36.301,-0.02905,-0.69873,-0.70898;
18:50:36.311,-0.02954,-0.69922,-0.70850;
18:50:36.321,-0.02954,-0.69971,-0.71143;
18:50:36.331,-0.02905,-0.69800,-0.70923;
18:50:36.341,-0.02979,-0.69824,-0.70996;
18:50:36.351,-0.02881,-0.69873,-0.70874;
18:50:36.361,-0.02881,-0.69849,-0.70825;
18:50:36.371,-0.02979,-0.69971,-0.70947;
18:50:36.381,-0.02881,-0.69897,-0.70801;
18:50:36.391,-0.02856,-0.69873,-0.70850;
18:50:36.401,-0.02930,-0.69727,-0.70947;
18:50:36.411,-0.02930,-0.69580,-0.70825;
18:50:36.421,-0.02979,-0.70020,-0.70996;
18:50:36.431,-0.02954,-0.69897,-0.71045;
18:50:36.441,-0.02832,-0.69629,-0.71045;
18:50:36.451,-0.02759,-0.69727,-0.71021;
18:50:36.461,-0.03003,-0.69971,-0.70947;
18:50:36.471,-0.03052,-0.69995,-0.71069;
18:50:36.481,-0.02808,-0.70044,-0.70874;
18:50:36.491,-0.02832,-0.70068,-0.70947;
18:50:36.501,-0.02979,-0.69775,-0.70947;
18:50:36.511,-0.02905,-0.69556,-0.70874;
18:50:36.521,-0.02930,-0.69653,-0.70947;
18:50:36.531,-0.02832,-0.69751,-0.70996;
18:50:36.541,-0.02881,-0.69800,-0.71118;
18:50:36.551,-0.03052,-0.69946,-0.71069;
18:50:36.561,-0.02979,-0.69800,-0.71045;
18:50:36.571,-0.03003,-0.69824,-0.70923;
18:50:36.581,-0.02881,-0.69897,-0.70947;
18:50:36.591,-0.03076,-0.69922,-0.70874;
18:50:36.601,-0.02881,-0.69849,-0.70825;
18:50:36.611,-0.03003,-0.70093,-0.70850;
18:50:36.621,-0.03125,-0.70068,-0.70923;
18:50:36.631,-0.02930,-0.69849,-0.71045;
18:50:36.641,-0.02905,-0.70093,-0.70850;
18:50:36.651,-0.02930,-0.70166,-0.70923;
18:50:36.661,-0.02832,-0.69922,-0.70898;
18:50:36.671,-0.02905,-0.70020,-0.70776;
18:50:36.681,-0.03052,-0.69849,-0.70947;
18:50:36.691,-0.02954,-0.69751,-0.71045;
18:50:36.701,-0.02979,-0.70117,-0.70898;
18:50:36.711,-0.02979,-0.70020,-0.70947;
18:50:36.721,-0.02905,-0.70044,-0.70923;
18:50:36.731,-0.03003,-0.70044,-0.70776;
18:50:36.741,-0.02930,-0.69800,-0.70996;
18:50:36.751,-0.02808,-0.69946,-0.70850;
18:50:36.761,-0.02930,-0.69946,-0.70972;
18:50:36.771,-0.02979,-0.70166,-0.71118;
18:50:36.781,-0.02881,-0.70044,-0.70801;
18:50:36.791,-0.02954,-0.69995,-0.70825;
18:50:36.801,-0.03052,-0.69775,-0.70825;
18:50:36.811,-0.03052,-0.69800,-0.70947;
18:50:36.821,-0.02905,-0.69849,-0.70874;
18:50:36.831,-0.03003,-0.69873,-0.70801;
18:50:36.841,-0.03149,-0.70142,-0.71045;
18:50:36.851,-0.03052,-0.70117,-0.70923;
18:50:36.861,-0.03027,-0.69897,-0.70874;
18:50:36.871,-0.02954,-0.69873,-0.71021;
18:50:36.881,-0.03027,-0.70117,-0.71094;
18:50:36.891,-0.03027,-0.69922,-0.70947;
18:50:36.901,-0.02930,-0.69629,-0.70923;
18:50:36.911,-0.03076,-0.69775,-0.71143;
18:50:36.921,-0.02930,-0.69824,-0.71021;
18:50:36.931,-0.02881,-0.69604,-0.70874;
18:50:36.941,-0.02954,-0.69775,-0.70850;
18:50:36.951,-0.03003,-0.69702,-0.70972;
18:50:36.961,-0.02954,-0.69727,-0.71338;
18:50:36.971,-0.03027,-0.69800,-0.71069;
18:50:36.981,-0.02979,-0.69702,-0.71143;
18:50:36.991,-0.02881,-0.69873,-0.71045;
18:50:37.001,-0.02954,-0.69824,-0.70947;
18:50:37.011,-0.02979,-0.69604,-0.71094;
18:50:37.021,-0.02905,-0.69751,-0.71045;
18:50:37.031,-0.03101,-0.69849,-0.70996;
18:50:37.041,-0.02930,-0.69751,-0.70923;
18:50:37.051,-0.02783,-0.69824,-0.71069;
18:50:37.061,-0.03052,-0.69824,-0.71167;
18:50:37.071,-0.02905,-0.69873,-0.70874;
18:50:37.081,-0.02759,-0.69702,-0.70850;
18:50:37.091,-0.02856,-0.69946,-0.71069;
18:50:37.101,-0.02979,-0.69971,-0.70898;
18:50:37.111,-0.02881,-0.70093,-0.70996;
18:50:37.121,-0.02930,-0.69824,-0.70996;
18:50:37.131,-0.02905,-0.69824,-0.70825;
18:50:37.141,-0.02881,-0.69824,-0.70825;
18:50:37.151,-0.02881,-0.69702,-0.71021;
18:50:37.161,-0.02783,-0.70117,-0.71069;
18:50:37.171,-0.02905,-0.69922,-0.70776;
18:50:37.181,-0.02783,-0.69849,-0.70801;
18:50:37.191,-0.02979,-0.69800,-0.70923;
18:50:37.201,-0.02979,-0.69727,-0.71069;
18:50:37.211,-0.02954,-0.69653,-0.71021;
18:50:37.221,-0.02954,-0.69873,-0.70825;
18:50:37.231,-0.02783,-0.69580,-0.70605;
18:50:37.241,-0.02881,-0.69800,-0.70825;
18:50:37.251,-0.02856,-0.69727,-0.71045;
18:50:37.261,-0.02832,-0.69653,-0.71045;
18:50:37.271,-0.02783,-0.69922,-0.71216;
18:50:37.281,-0.02832,-0.69971,-0.70996;
18:50:37.291,-0.02979,-0.69727,-0.70923;
18:50:37.301,-0.02979,-0.69775,-0.71045;
18:50:37.311,-0.02930,-0.69922,-0.71240;
18:50:37.321,-0.02954,-0.69580,-0.71021;
18:50:37.331,-0.02954,-0.69409,-0.70898;
18:50:37.341,-0.02954,-0.69702,-0.71021;
18:50:37.351,-0.02808,-0.69824,-0.70752;
18:50:37.361,-0.02954,-0.69775,-0.71045;
18:50:37.371,-0.02832,-0.69751,-0.70776;
18:50:37.381,-0.02661,-0.69824,-0.70679;
18:50:37.391,-0.02930,-0.70068,-0.70874;
18:50:37.401,-0.02856,-0.69922,-0.71045;
18:50:37.411,-0.02856,-0.69897,-0.70898;
18:50:37.421,-0.02734,-0.69849,-0.70947;
18:50:37.431,-0.02734,-0.69995,-0.70972;
18:50:37.441,-0.02759,-0.69995,-0.70898;
18:50:37.451,-0.02588,-0.69556,-0.71191;
18:50:37.461,-0.02710,-0.69507,-0.71313;
18:50:37.471,-0.02710,-0.69556,-0.71143;
18:50:37.481,-0.02734,-0.69434,-0.70850;
18:50:37.491,-0.02832,-0.69580,-0.70996;
18:50:37.501,-0.02783,-0.69580,-0.70703;
18:50:37.511,-0.02710,-0.69409,-0.70752;
18:50:37.521,-0.02930,-0.69556,-0.70972;
18:50:37.531,-0.03052,-0.69971,-0.70679;
18:50:37.541,-0.02856,-0.69946,-0.70703;
18:50:37.551,-0.02979,-0.69727,-0.70654;
18:50:37.561,-0.02905,-0.69849,-0.70996;
18:50:37.571,-0.02612,-0.69849,-0.71021;
18:50:37.581,-0.02759,-0.70068,-0.70947;
18:50:37.591,-0.02832,-0.70044,-0.71191;
18:50:37.601,-0.02783,-0.69702,-0.71021;
18:50:37.611,-0.03052,-0.69678,-0.70801;
18:50:37.621,-0.03027,-0.69507,-0.71045;
18:50:37.631,-0.02881,-0.69678,-0.70923;
18:50:37.641,-0.02979,-0.69873,-0.70752;
18:50:37.651,-0.02979,-0.69824,-0.71045;
18:50:37.661,-0.03003,-0.69702,-0.71069;
18:50:37.671,-0.02930,-0.69580,-0.70825;
18:50:37.681,-0.02979,-0.70093,-0.70630;
18:50:37.691,-0.02954,-0.70068,-0.70605;
18:50:37.701,-0.02832,-0.69922,-0.70776;
18:50:37.711,-0.02905,-0.70093,-0.70996;
18:50:37.721,-0.02783,-0.69897,-0.70923;
18:50:37.731,-0.02808,-0.69995,-0.70898;
18:50:37.741,-0.03052,-0.70044,-0.70923;
18:50:37.751,-0.02954,-0.69946,-0.70947;
18:50:37.761,-0.02881,-0.69800,-0.70947;
18:50:37.771,-0.02856,-0.69604,-0.70898;
18:50:37.781,-0.02832,-0.69580,-0.70776;
18:50:37.791,-0.02808,-0.69800,-0.70728;
18:50:37.801,-0.02930,-0.69946,-0.71069;
18:50:37.811,-0.02930,-0.69800,-0.70996;
18:50:37.821,-0.02856,-0.69849,-0.70874;
18:50:37.831,-0.02954,-0.69971,-0.71094;
18:50:37.841,-0.02979,-0.69751,-0.70728;
18:50:37.851,-0.02979,-0.69727,-0.70801;
18:50:37.861,-0.02856,-0.69873,-0.71191;
18:50:37.871,-0.02856,-0.69580,-0.71167;
18:50:37.881,-0.02979,-0.69678,-0.70996;
18:50:37.891,-0.02856,-0.69897,-0.70703;
18:50:37.901,-0.03003,-0.69849,-0.70776;
18:50:37.911,-0.02881,-0.69849,-0.70825;
18:50:37.921,-0.02808,-0.69727,-0.70972;
18:50:37.931,-0.02734,-0.69849,-0.70874;
18:50:37.941,-0.02783,-0.69971,-0.70874;
18:50:37.951,-0.03003,-0.69897,-0.70972;
18:50:37.961,-0.02905,-0.69849,-0.70923;
18:50:37.971,-0.02905,-0.69873,-0.70947;
18:50:37.981,-0.02979,-0.69946,-0.71045;
18:50:37.991,-0.02954,-0.69434,-0.71069;
18:50:38.001,-0.02905,-0.69360,-0.71216;
18:50:38.011,-0.02808,-0.69580,-0.70996;
18:50:38.021,-0.02808,-0.69678,-0.70728;
18:50:38.031,-0.02856,-0.69653,-0.70923;
18:50:38.041,-0.02881,-0.69727,-0.70898;
18:50:38.051,-0.02905,-0.69727,-0.70947;
18:50:38.061,-0.02783,-0.69800,-0.70630;
18:50:38.071,-0.02808,-0.69946,-0.70825;
18:50:38.081,-0.02783,-0.69897,-0.70947;
18:50:38.091,-0.02856,-0.70020,-0.70947;
18:50:38.101,-0.02979,-0.70068,-0.71167;
18:50:38.111,-0.02930,-0.69946,-0.71021;
18:50:38.121,-0.02930,-0.69775,-0.70996;
18:50:38.131,-0.02954,-0.69702,-0.71045;
18:50:38.141,-0.02979,-0.69604,-0.70996;
18:50:38.151,-0.02905,-0.69702,-0.71021;
18:50:38.161,-0.02759,-0.69751,-0.71069;
18:50:38.171,-0.02930,-0.69775,-0.70996;
18:50:38.181,-0.02930,-0.69629,-0.70850;
18:50:38.191,-0.02881,-0.69897,-0.70898;
18:50:38.201,-0.02905,-0.70044,-0.70898;
18:50:38.211,-0.02856,-0.69922,-0.70996;
18:50:38.221,-0.02856,-0.69946,-0.70752;
18:50:38.231,-0.02783,-0.69971,-0.70703;
18:50:38.241,-0.02759,-0.70239,-0.71118;
18:50:38.251,-0.02734,-0.69922,-0.71021;
18:50:38.261,-0.02832,-0.69629,-0.71191;
18:50:38.271,-0.03003,-0.69531,-0.70972;
18:50:38.281,-0.03003,-0.69458,-0.70898;
18:50:38.291,-0.02930,-0.69385,-0.71143;
18:50:38.301,-0.02930,-0.69629,-0.70874;
18:50:38.311,-0.02881,-0.69751,-0.70947;
18:50:38.321,-0.02881,-0.69653,-0.71021;
18:50:38.331,-0.02881,-0.69800,-0.71021;
18:50:38.341,-0.02783,-0.69678,-0.70679;
18:50:38.351,-0.02832,-0.69873,-0.70776;
18:50:38.361,-0.03076,-0.69995,-0.71118;
18:50:38.371,-0.02783,-0.69971,-0.71118;
18:50:38.381,-0.02832,-0.70020,-0.70850;
18:50:38.391,-0.03052,-0.69458,-0.71216;
18:50:38.401,-0.02856,-0.69629,-0.71118;
18:50:38.411,-0.02808,-0.69702,-0.71045;
18:50:38.421,-0.02856,-0.69971,-0.70874;
18:50:38.431,-0.02832,-0.69678,-0.71021;
18:50:38.441,-0.02856,-0.69727,-0.70972;
18:50:38.451,-0.02905,-0.69727,-0.70508;
18:50:38.461,-0.02954,-0.69775,-0.70825;
18:50:38.471,-0.02979,-0.69824,-0.70923;
18:50:38.481,-0.03027,-0.69946,-0.70972;
18:50:38.491,-0.03003,-0.70117,-0.70898;
18:50:38.501,-0.02856,-0.69922,-0.70923;
18:50:38.511,-0.03076,-0.69897,-0.70972;
18:50:38.521,-0.02930,-0.69800,-0.70728;
18:50:38.531,-0.02930,-0.69507,-0.71021;
18:50:38.541,-0.02905,-0.69531,-0.71143;
18:50:38.551,-0.02930,-0.69385,-0.71094;
18:50:38.561,-0.02930,-0.69458,-0.70947;
18:50:38.571,-0.02856,-0.69604,-0.70825;
18:50:38.581,-0.02881,-0.69727,-0.70728;
18:50:38.591,-0.02856,-0.69507,-0.70654;
18:50:38.601,-0.02979,-0.69751,-0.70972;
18:50:38.611,-0.02832,-0.69946,-0.71069;
18:50:38.621,-0.02783,-0.69800,-0.70923;
18:50:38.631,-0.02783,-0.69824,-0.70850;
18:50:38.641,-0.02612,-0.69971,-0.70923;
18:50:38.651,-0.02637,-0.69946,-0.71094;
18:50:38.661,-0.02783,-0.69751,-0.71069;
18:50:38.671,-0.02954,-0.69873,-0.70825;
18:50:38.681,-0.02930,-0.69531,-0.71118;
18:50:38.691,-0.02954,-0.69678,-0.71265;
18:50:38.701,-0.02930,-0.69458,-0.70923;
18:50:38.711,-0.02832,-0.69531,-0.71143;
18:50:38.721,-0.02783,-0.69702,-0.71289;
18:50:38.731,-0.02832,-0.69507,-0.71216;
18:50:38.741,-0.02783,-0.69556,-0.71167;
18:50:38.751,-0.02783,-0.69556,-0.70996;
18:50:38.761,-0.02783,-0.69751,-0.71021;
18:50:38.771,-0.02808,-0.69775,-0.71021;
18:50:38.781,-0.02930,-0.69775,-0.70996;
18:50:38.791,-0.02832,-0.69971,-0.70801;
18:50:38.801,-0.02954,-0.69946,-0.70605;
18:50:38.811,-0.03003,-0.69653,-0.71118;
18:50:38.821,-0.02930,-0.69556,-0.71143;
18:50:38.831,-0.03052,-0.69556,-0.70923;
18:50:38.841,-0.02905,-0.69580,-0.70947;
18:50:38.851,-0.02637,-0.69800,-0.70898;
18:50:38.861,-0.02783,-0.70020,-0.70996;
18:50:38.871,-0.02954,-0.69873,-0.70776;
18:50:38.881,-0.02856,-0.69995,-0.70605;
18:50:38.891,-0.02905,-0.70044,-0.70825;
18:50:38.901,-0.02930,-0.69946,-0.70972;
18:50:38.911,-0.02734,-0.69800,-0.71118;
18:50:38.921,-0.03125,-0.69531,-0.70923;
18:50:38.931,-0.02856,-0.69580,-0.70703;
18:50:38.941,-0.02881,-0.69702,-0.70825;
18:50:38.951,-0.02930,-0.69751,-0.70996;
18:50:38.961,-0.02954,-0.69531,-0.70728;
18:50:38.971,-0.03003,-0.69385,-0.70630;
18:50:38.981,-0.02954,-0.69653,-0.70874;
18:50:38.991,-0.02856,-0.69653,-0.70996;
18:50:39.001,-0.02783,-0.69531,-0.71167;
18:50:39.011,-0.02783,-0.69482,-0.71338;
18:50:39.021,-0.02759,-0.69702,-0.71167;
18:50:39.031,-0.02612,-0.69775,-0.71143;
18:50:39.041,-0.02734,-0.69824,-0.71069;
18:50:39.051,-0.02661,-0.69775,-0.71069;
18:50:39.061,-0.02539,-0.69751,-0.70972;
18:50:39.071,-0.02832,-0.69946,-0.70752;
18:50:39.081,-0.03003,-0.69727,-0.70947;
18:50:39.091,-0.02783,-0.69775,-0.70898;
18:50:39.101,-0.02686,-0.69824,-0.70801;
18:50:39.111,-0.02710,-0.69897,-0.70947;
18:50:39.121,-0.02710,-0.69751,-0.71021;
18:50:39.131,-0.02661,-0.69800,-0.70825;
18:50:39.141,-0.02808,-0.69971,-0.70776;
18:50:39.151,-0.02856,-0.69824,-0.70728;
18:50:39.161,-0.02881,-0.69873,-0.70825;
18:50:39.171,-0.03101,-0.70093,-0.70898;
18:50:39.181,-0.02856,-0.69995,-0.71118;
18:50:39.191,-0.02856,-0.69800,-0.71045;
18:50:39.201,-0.03003,-0.69678,-0.71265;
18:50:39.211,-0.03101,-0.69580,-0.71313;
18:50:39.221,-0.03052,-0.69434,-0.71021;
18:50:39.231,-0.02930,-0.69556,-0.71313;
18:50:39.241,-0.02832,-0.69409,-0.71289;
18:50:39.251,-0.02930,-0.69458,-0.71216;
18:50:39.261,-0.02979,-0.69580,-0.71069;
18:50:39.271,-0.02905,-0.69629,-0.71021;
18:50:39.281,-0.02905,-0.69556,-0.70996;
18:50:39.291,-0.02905,-0.69531,-0.71094;
18:50:39.301,-0.03003,-0.69678,-0.70972;
18:50:39.311,-0.02856,-0.69678,-0.71191;
18:50:39.321,-0.02881,-0.69849,-0.70850;
18:50:39.331,-0.02832,-0.69897,-0.70703;
18:50:39.341,-0.02881,-0.69995,-0.70776;
18:50:39.351,-0.02954,-0.69946,-0.70898;
18:50:39.361,-0.02954,-0.69995,-0.70923;
18:50:39.371,-0.02954,-0.69946,-0.70972;
18:50:39.381,-0.02856,-0.69995,-0.71045;
18:50:39.391,-0.02808,-0.69995,-0.71069;
18:50:39.401,-0.02710,-0.69995,-0.71216;
18:50:39.411,-0.02563,-0.70068,-0.71045;
18:50:39.421,-0.02808,-0.69922,-0.70898;
18:50:39.431,-0.03149,-0.69775,-0.71069;
18:50:39.441,-0.02979,-0.69604,-0.71069;
18:50:39.451,-0.02930,-0.69727,-0.71021;
18:50:39.461,-0.03027,-0.69507,-0.71167;
18:50:39.471,-0.02979,-0.69629,-0.71069;
18:50:39.481,-0.02954,-0.69604,-0.70947;
18:50:39.491,-0.02930,-0.69434,-0.70874;
18:50:39.501,-0.02759,-0.69800,-0.70728;
18:50:39.511,-0.02832,-0.69702,-0.70996;
18:50:39.521,-0.02734,-0.69897,-0.71143;
18:50:39.531,-0.02808,-0.69751,-0.71094;
18:50:39.541,-0.02930,-0.69482,-0.71094;
18:50:39.551,-0.02979,-0.69409,-0.71509;
18:50:39.561,-0.02930,-0.69678,-0.71338;
18:50:39.571,-0.02954,-0.69604,-0.70972;
18:50:39.581,-0.02954,-0.69434,-0.71021;
18:50:39.591,-0.03027,-0.69629,-0.71191;
18:50:39.601,-0.03052,-0.69556,-0.70850;
18:50:39.611,-0.03003,-0.69653,-0.71021;
18:50:39.621,-0.02832,-0.69727,-0.70898;
18:50:39.631,-0.02930,-0.69849,-0.70825;
18:50:39.641,-0.02808,-0.69995,-0.70947;
18:50:39.651,-0.02710,-0.70093,-0.70923;
18:50:39.661,-0.02832,-0.70044,-0.70898;
18:50:39.671,-0.02832,-0.69775,-0.70752;
18:50:39.681,-0.02856,-0.69702,-0.70923;
18:50:39.691,-0.02783,-0.69897,-0.70874;
18:50:39.701,-0.02881,-0.69702,-0.70972;
18:50:39.711,-0.02856,-0.69702,-0.70898;
18:50:39.721,-0.02734,-0.69653,-0.70850;
18:50:39.731,-0.02954,-0.69580,-0.70947;
18:50:39.741,-0.02905,-0.69580,-0.71191;
18:50:39.751,-0.02954,-0.69604,-0.71191;
18:50:39.761,-0.03027,-0.69678,-0.70996;
18:50:39.771,-0.02783,-0.69653,-0.70850;
18:50:39.781,-0.02954,-0.69751,-0.70825;
18:50:39.791,-0.02881,-0.69922,-0.70776;
18:50:39.801,-0.02832,-0.69702,-0.70996;
18:50:39.811,-0.02905,-0.69751,-0.71191;
18:50:39.821,-0.02710,-0.69678,-0.70947;
18:50:39.831,-0.02710,-0.69434,-0.71094;
18:50:39.841,-0.02930,-0.69653,-0.71021;
18:50:39.851,-0.02832,-0.69702,-0.70947;
18:50:39.861,-0.02881,-0.69580,-0.71240;
18:50:39.871,-0.03052,-0.69604,-0.71167;
18:50:39.881,-0.03027,-0.69873,-0.71118;
18:50:39.891,-0.02808,-0.69800,-0.71069;
18:50:39.901,-0.02808,-0.69653,-0.71167;
18:50:39.911,-0.02832,-0.69751,-0.70874;
18:50:39.921,-0.02808,-0.69727,-0.71167;
18:50:39.931,-0.02856,-0.69629,-0.71167;
18:50:39.941,-0.02783,-0.69678,-0.70923;
18:50:39.951,-0.02759,-0.69629,-0.70874;
18:50:39.961,-0.02832,-0.69800,-0.70605;
18:50:39.971,-0.02979,-0.69873,-0.70923;
18:50:39.981,-0.03027,-0.69775,-0.71021;
18:50:39.991,-0.03125,-0.69727,-0.71118;
18:50:40.001,-0.02856,-0.69727,-0.70923;
18:50:40.011,-0.02832,-0.69751,-0.70996;
18:50:40.021,-0.02905,-0.69727,-0.71094;
18:50:40.031,-0.02856,-0.69946,-0.71118;
18:50:40.041,-0.02856,-0.69800,-0.70923;
18:50:40.051,-0.02856,-0.69751,-0.70874;
18:50:40.061,-0.02832,-0.69922,-0.70874;
18:50:40.071,-0.02759,-0.69971,-0.70972;
18:50:40.081,-0.02954,-0.69922,-0.71021;
18:50:40.091,-0.03027,-0.69775,-0.70947;
18:50:40.101,-0.02856,-0.69678,-0.71021;
18:50:40.111,-0.02905,-0.69800,-0.71167;
18:50:40.121,-0.02832,-0.69702,-0.70923;
18:50:40.131,-0.02856,-0.70044,-0.70996;
18:50:40.141,-0.03027,-0.69727,-0.71021;
18:50:40.151,-0.02856,-0.69800,-0.70972;
18:50:40.161,-0.02832,-0.69922,-0.70654;
18:50:40.171,-0.02759,-0.69897,-0.70752;
18:50:40.181,-0.02832,-0.69897,-0.70801;
18:50:40.191,-0.03027,-0.70044,-0.70923;
18:50:40.201,-0.02954,-0.69873,-0.70947;
18:50:40.211,-0.02979,-0.69849,-0.71167;
18:50:40.221,-0.02808,-0.69629,-0.71094;
18:50:40.231,-0.02808,-0.69653,-0.70947;
18:50:40.241,-0.03052,-0.69507,-0.70972;
18:50:40.251,-0.02954,-0.69604,-0.71094;
18:50:40.261,-0.02881,-0.69678,-0.70947;
18:50:40.271,-0.02881,-0.69727,-0.70874;
18:50:40.281,-0.02832,-0.69507,-0.71021;
18:50:40.291,-0.03003,-0.69531,-0.70996;
18:50:40.301,-0.02881,-0.69727,-0.70923;
18:50:40.311,-0.02783,-0.69458,-0.71045;
18:50:40.321,-0.02930,-0.69531,-0.71167;
18:50:40.331,-0.02979,-0.69678,-0.70703;
18:50:40.341,-0.02905,-0.69824,-0.70630;
18:50:40.351,-0.02808,-0.69678,-0.70947;
18:50:40.361,-0.02808,-0.69873,-0.71216;
18:50:40.371,-0.02686,-0.70166,-0.71118;
18:50:40.381,-0.02612,-0.69971,-0.71094;
18:50:40.391,-0.02930,-0.69824,-0.71240;
18:50:40.401,-0.02930,-0.69971,-0.70874;
18:50:40.411,-0.02832,-0.69824,-0.70947;
18:50:40.421,-0.02930,-0.69775,-0.71045;
18:50:40.431,-0.02856,-0.69702,-0.71021;
18:50:40.441,-0.02954,-0.69775,-0.70898;
18:50:40.451,-0.03003,-0.69800,-0.70898;
18:50:40.461,-0.02905,-0.69629,-0.71045;
18:50:40.471,-0.02734,-0.69995,-0.70996;
18:50:40.481,-0.02808,-0.69922,-0.70874;
18:50:40.491,-0.02832,-0.69824,-0.71094;
18:50:40.501,-0.02759,-0.69824,-0.71021;
18:50:40.511,-0.02930,-0.69946,-0.70801;
18:50:40.521,-0.02808,-0.69751,-0.70776;
18:50:40.531,-0.02881,-0.69775,-0.70947;
18:50:40.541,-0.02759,-0.69995,-0.71069;
18:50:40.551,-0.02808,-0.69897,-0.70923;
18:50:40.561,-0.02808,-0.69873,-0.70898;
18:50:40.571,-0.02783,-0.69824,-0.70825;
18:50:40.581,-0.02832,-0.69800,-0.70947;
18:50:40.591,-0.02734,-0.69531,-0.71021;
18:50:40.601,-0.02759,-0.69409,-0.70776;
18:50:40.611,-0.02856,-0.69653,-0.71118;
18:50:40.621,-0.02808,-0.69678,-0.71094;
18:50:40.631,-0.02588,-0.69531,-0.71045;
18:50:40.641,-0.02783,-0.69556,-0.70947;
18:50:40.651,-0.02856,-0.69604,-0.70996;
18:50:40.661,-0.02856,-0.69800,-0.71167;
18:50:40.671,-0.02930,-0.69775,-0.70996;
18:50:40.681,-0.02856,-0.69678,-0.71045;
18:50:40.691,-0.02905,-0.69531,-0.70898;
18:50:40.701,-0.02881,-0.69531,-0.70947;
18:50:40.711,-0.02832,-0.69727,-0.71045;
18:50:40.721,-0.03003,-0.69922,-0.70923;
18:50:40.731,-0.02930,-0.69678,-0.70752;
18:50:40.741,-0.02734,-0.69922,-0.71069;
18:50:40.751,-0.02734,-0.70020,-0.70972;
18:50:40.761,-0.02930,-0.69897,-0.71021;
18:50:40.771,-0.02734,-0.69678,-0.71216;
18:50:40.781,-0.02930,-0.69800,-0.71118;
18:50:40.791,-0.02905,-0.69727,-0.70947;
18:50:40.801,-0.03003,-0.69751,-0.71094;
18:50:40.811,-0.02979,-0.70020,-0.70752;
18:50:40.821,-0.02881,-0.69995,-0.70874;
18:50:40.831,-0.03027,-0.69751,-0.70825;
18:50:40.841,-0.02979,-0.69995,-0.70703;
18:50:40.851,-0.02759,-0.70068,-0.70947;
18:50:40.861,-0.02856,-0.69946,-0.70776;
18:50:40.871,-0.02832,-0.69800,-0.71216;
18:50:40.881,-0.02686,-0.69800,-0.71216;
18:50:40.891,-0.02783,-0.69629,-0.71118;
18:50:40.901,-0.02954,-0.69678,-0.71265;
18:50:40.911,-0.02930,-0.69580,-0.71240;
18:50:40.921,-0.02881,-0.69434,-0.71167;
18:50:40.931,-0.02881,-0.69653,-0.70923;
18:50:40.941,-0.02954,-0.69580,-0.70874;
18:50:40.951,-0.02979,-0.69604,-0.71118;
18:50:40.961,-0.02979,-0.69678,-0.70801;
18:50:40.971,-0.02832,-0.69775,-0.70801;
18:50:40.981,-0.02930,-0.69946,-0.70752;
18:50:40.991,-0.02881,-0.69800,-0.70557;
18:50:41.001,-0.02686,-0.69800,-0.70947;
18:50:41.011,-0.02881,-0.69897,-0.70874;
18:50:41.021,-0.02783,-0.69897,-0.70776;
18:50:41.031,-0.02905,-0.69824,-0.70898;
18:50:41.041,-0.02856,-0.69824,-0.71167;
18:50:41.051,-0.02905,-0.69727,-0.70947;
18:50:41.061,-0.02954,-0.69556,-0.70752;
18:50:41.071,-0.02710,-0.69580,-0.71069;
18:50:41.081,-0.02783,-0.69604,-0.71094;
18:50:41.091,-0.02905,-0.69702,-0.70874;
18:50:41.101,-0.03003,-0.69873,-0.71094;
18:50:41.111,-0.02905,-0.69727,-0.71021;
18:50:41.121,-0.02661,-0.69873,-0.70923;
18:50:41.131,-0.02832,-0.69678,-0.71069;
18:50:41.141,-0.02979,-0.69702,-0.70654;
18:50:41.151,-0.02808,-0.69971,-0.70654;
18:50:41.161,-0.02783,-0.69922,-0.70776;
18:50:41.171,-0.02783,-0.69995,-0.70581;
18:50:41.181,-0.02832,-0.69824,-0.70874;
18:50:41.191,-0.02930,-0.70044,-0.71094;
18:50:41.201,-0.02808,-0.70044,-0.70850;
18:50:41.211,-0.02661,-0.69849,-0.70850;
18:50:41.221,-0.02832,-0.69702,-0.71094;
18:50:41.231,-0.02808,-0.69751,-0.71069;
18:50:41.241,-0.02905,-0.69751,-0.71021;
18:50:41.251,-0.02856,-0.69604,-0.71265;
18:50:41.261,-0.02588,-0.69336,-0.70996;
18:50:41.271,-0.02905,-0.69702,-0.70776;
18:50:41.281,-0.02832,-0.69751,-0.70850;
18:50:41.291,-0.02832,-0.69702,-0.70581;
18:50:41.301,-0.02856,-0.69971,-0.70801;
18:50:41.311,-0.02881,-0.69775,-0.70850;
18:50:41.321,-0.02954,-0.69849,-0.70801;
18:50:41.331,-0.02808,-0.69727,-0.70947;
18:50:41.341,-0.02710,-0.69507,-0.70947;
18:50:41.351,-0.02832,-0.69507,-0.71045;
18:50:41.361,-0.02832,-0.69629,-0.71167;
18:50:41.371,-0.02759,-0.69580,-0.71021;
18:50:41.381,-0.02832,-0.69385,-0.71045;
18:50:41.391,-0.02881,-0.69580,-0.70703;
18:50:41.401,-0.02710,-0.69629,-0.70898;
18:50:41.411,-0.02856,-0.69531,-0.70972;
18:50:41.421,-0.03003,-0.69849,-0.70947;
18:50:41.431,-0.03003,-0.69751,-0.70996;
18:50:41.441,-0.02808,-0.69873,-0.70874;
18:50:41.451,-0.02759,-0.69922,-0.70898;
18:50:41.461,-0.02856,-0.69971,-0.70874;
18:50:41.471,-0.02856,-0.70020,-0.70898;
18:50:41.481,-0.02856,-0.70093,-0.70850;
18:50:41.491,-0.02905,-0.69971,-0.70605;
18:50:41.501,-0.02856,-0.69775,-0.70630;
18:50:41.511,-0.02686,-0.69824,-0.70581;
18:50:41.521,-0.02856,-0.69531,-0.70898;
18:50:41.531,-0.02759,-0.69800,-0.71143;
18:50:41.541,-0.02856,-0.69971,-0.70972;
18:50:41.551,-0.02979,-0.69751,-0.70923;
18:50:41.561,-0.02759,-0.69531,-0.70898;
18:50:41.571,-0.02710,-0.69580,-0.70898;
18:50:41.581,-0.02783,-0.69800,-0.70972;
18:50:41.591,-0.02881,-0.69751,-0.71069;
18:50:41.601,-0.02710,-0.69580,-0.71216;
18:50:41.611,-0.02783,-0.69556,-0.71045;
18:50:41.621,-0.02832,-0.69678,-0.70972;
18:50:41.631,-0.02759,-0.69751,-0.71240;
18:50:41.641,-0.02783,-0.69653,-0.71069;
18:50:41.651,-0.02832,-0.69922,-0.70947;
18:50:41.661,-0.02808,-0.69580,-0.70874;
18:50:41.671,-0.02783,-0.69702,-0.70923;
18:50:41.681,-0.02905,-0.69800,-0.70605;
18:50:41.691,-0.02856,-0.69556,-0.70776;
18:50:41.701,-0.02808,-0.69824,-0.71118;
18:50:41.711,-0.03003,-0.69702,-0.71143;
18:50:41.721,-0.02954,-0.69897,-0.70752;
18:50:41.731,-0.02954,-0.69922,-0.70923;
18:50:41.741,-0.02905,-0.69800,-0.71069;
18:50:41.751,-0.02856,-0.69897,-0.70801;
18:50:41.761,-0.02832,-0.69800,-0.70801;
18:50:41.771,-0.02710,-0.69702,-0.70996;
18:50:41.781,-0.02856,-0.69702,-0.70972;
18:50:41.791,-0.02954,-0.69971,-0.70996;
18:50:41.801,-0.02856,-0.70093,-0.71191;
18:50:41.811,-0.02832,-0.69824,-0.70972;
18:50:41.821,-0.02808,-0.69800,-0.70752;
18:50:41.831,-0.02808,-0.69824,-0.70752;
18:50:41.841,-0.02783,-0.69727,-0.70923;
18:50:41.851,-0.02808,-0.69556,-0.70874;
18:50:41.861,-0.02856,-0.69678,-0.71045;
18:50:41.871,-0.02783,-0.69800,-0.71069;
18:50:41.881,-0.02856,-0.69653,-0.71167;
18:50:41.891,-0.02930,-0.69653,-0.71143;
18:50:41.901,-0.02808,-0.69678,-0.70947;
18:50:41.911,-0.02734,-0.69946,-0.70923;
18:50:41.921,-0.02905,-0.70068,-0.70752;
18:50:41.931,-0.02856,-0.70093,-0.70703;
18:50:41.941,-0.02832,-0.70117,-0.70581;
18:50:41.951,-0.02759,-0.70215,-0.70581;
18:50:41.961,-0.02686,-0.69995,-0.70679;
18:50:41.971,-0.02734,-0.69995,-0.70898;
18:50:41.981,-0.02588,-0.69946,-0.70679;
18:50:41.991,-0.02808,-0.69971,-0.70923;
18:50:42.001,-0.02832,-0.70093,-0.70972;
18:50:42.011,-0.02905,-0.69897,-0.70752;
18:50:42.021,-0.02905,-0.69775,-0.70874;
18:50:42.031,-0.02881,-0.69702,-0.70752;
18:50:42.041,-0.02832,-0.69775,-0.71021;
18:50:42.051,-0.02808,-0.69678,-0.71094;
18:50:42.061,-0.02783,-0.69653,-0.71143;
18:50:42.071,-0.02808,-0.69556,-0.71069;
18:50:42.081,-0.02832,-0.69385,-0.71069;
18:50:42.091,-0.02759,-0.69385,-0.71216;
18:50:42.101,-0.02881,-0.69458,-0.70654;
18:50:42.111,-0.02856,-0.69531,-0.70776;
18:50:42.121,-0.02734,-0.69629,-0.70825;
18:50:42.131,-0.02637,-0.69702,-0.70728;
18:50:42.141,-0.02710,-0.69702,-0.70996;
18:50:42.151,-0.02808,-0.69873,-0.70850;
18:50:42.161,-0.02759,-0.69946,-0.70898;
18:50:42.171,-0.02856,-0.69824,-0.70898;
18:50:42.181,-0.02856,-0.70044,-0.70825;
18:50:42.191,-0.02930,-0.69727,-0.70996;
18:50:42.201,-0.03027,-0.69653,-0.70996;
18:50:42.211,-0.02856,-0.69922,-0.70874;
18:50:42.221,-0.02808,-0.69849,-0.70850;
18:50:42.231,-0.02856,-0.70093,-0.70874;
18:50:42.241,-0.02856,-0.69873,-0.70947;
18:50:42.251,-0.02881,-0.69702,-0.70679;
18:50:42.261,-0.02783,-0.69873,-0.70874;
18:50:42.271,-0.02808,-0.69849,-0.70898;
18:50:42.281,-0.02905,-0.69824,-0.70996;
18:50:42.291,-0.02930,-0.69800,-0.70972;
18:50:42.301,-0.03052,-0.69775,-0.70850;
18:50:42.311,-0.03027,-0.69629,-0.70972;
18:50:42.321,-0.03003,-0.69360,-0.70898;
18:50:42.331,-0.03027,-0.69458,-0.71045;
18:50:42.341,-0.02856,-0.69629,-0.70996;
18:50:42.351,-0.02808,-0.69556,-0.70972;
18:50:42.361,-0.02832,-0.69409,-0.71118;
18:50:42.371,-0.02686,-0.69580,-0.70972;
18:50:42.381,-0.02686,-0.69702,-0.71045;
18:50:42.391,-0.02856,-0.69531,-0.71143;
18:50:42.401,-0.02856,-0.69751,-0.70923;
18:50:42.411,-0.02808,-0.69849,-0.70996;
18:50:42.421,-0.02856,-0.69873,-0.70850;
18:50:42.431,-0.02881,-0.69775,-0.70898;
18:50:42.441,-0.02905,-0.69727,-0.70996;
18:50:42.451,-0.03027,-0.69458,-0.70947;
18:50:42.461,-0.02612,-0.69604,-0.70874;
18:50:42.471,-0.02881,-0.69849,-0.70703;
18:50:42.481,-0.02856,-0.69922,-0.70654;
18:50:42.491,-0.02881,-0.69800,-0.71069;
18:50:42.501,-0.02954,-0.69800,-0.70874;
18:50:42.511,-0.02759,-0.69922,-0.71045;
18:50:42.521,-0.02710,-0.69629,-0.70728;
18:50:42.531,-0.02881,-0.69751,-0.71021;
18:50:42.541,-0.02905,-0.69971,-0.71021;
18:50:42.551,-0.02905,-0.69727,-0.70898;
18:50:42.561,-0.02856,-0.69849,-0.71021;
18:50:42.571,-0.02905,-0.69678,-0.70801;
18:50:42.581,-0.02808,-0.69604,-0.70801;
18:50:42.591,-0.02832,-0.69873,-0.70874;
18:50:42.601,-0.03003,-0.69824,-0.70923;
18:50:42.611,-0.02734,-0.69727,-0.70801;
18:50:42.621,-0.02808,-0.69873,-0.70801;
18:50:42.631,-0.02856,-0.69678,-0.71069;
18:50:42.641,-0.02832,-0.69800,-0.70874;
18:50:42.651,-0.02881,-0.69702,-0.70679;
18:50:42.661,-0.02734,-0.69604,-0.70728;
18:50:42.671,-0.02832,-0.69800,-0.70898;
18:50:42.681,-0.02832,-0.69653,-0.71118;
18:50:42.691,-0.02832,-0.69629,-0.70898;
18:50:42.701,-0.02881,-0.69702,-0.70972;
18:50:42.711,-0.02905,-0.69800,-0.70874;
18:50:42.721,-0.02930,-0.69946,-0.70728;
18:50:42.731,-0.02832,-0.70044,-0.70874;
18:50:42.741,-0.02856,-0.69922,-0.70898;
18:50:42.751,-0.02954,-0.69751,-0.70996;
18:50:42.761,-0.02881,-0.69922,-0.70996;
18:50:42.771,-0.02808,-0.69824,-0.70947;
18:50:42.781,-0.02856,-0.69849,-0.70972;
18:50:42.791,-0.02856,-0.69653,-0.70947;
18:50:42.801,-0.02856,-0.69580,-0.70850;
18:50:42.811,-0.02954,-0.69824,-0.70801;
18:50:42.821,-0.02905,-0.69897,-0.70752;
18:50:42.831,-0.02832,-0.69751,-0.71045;
18:50:42.841,-0.02832,-0.69678,-0.70850;
18:50:42.851,-0.02783,-0.69897,-0.70850;
18:50:42.861,-0.02832,-0.69727,-0.71021;
18:50:42.871,-0.02856,-0.69775,-0.71069;
18:50:42.881,-0.02881,-0.69775,-0.71118;
18:50:42.891,-0.02905,-0.69775,-0.70776;
18:50:42.901,-0.02905,-0.69824,-0.71045;
18:50:42.911,-0.02832,-0.69824,-0.70947;
18:50:42.921,-0.02661,-0.69873,-0.70825;
18:50:42.931,-0.02734,-0.69971,-0.70874;
18:50:42.941,-0.02612,-0.69800,-0.71143;
18:50:42.951,-0.02661,-0.70117,-0.70972;
18:50:42.961,-0.02856,-0.69873,-0.70947;
18:50:42.971,-0.02905,-0.69360,-0.70996;
18:50:42.981,-0.02954,-0.69678,-0.70972;
18:50:42.991,-0.02881,-0.69409,-0.71167;
18:50:43.001,-0.02808,-0.69531,-0.71265;
18:50:43.011,-0.02832,-0.69824,-0.71021;
18:50:43.021,-0.02808,-0.69824,-0.71069;
18:50:43.031,-0.02759,-0.70020,-0.70947;
18:50:43.041,-0.02783,-0.70020,-0.70947;
18:50:43.051,-0.02930,-0.69775,-0.70996;
18:50:43.061,-0.02979,-0.69873,-0.70630;
18:50:43.071,-0.02954,-0.69873,-0.70850;
18:50:43.081,-0.03003,-0.69946,-0.70898;
18:50:43.091,-0.02808,-0.69946,-0.70996;
18:50:43.101,-0.02905,-0.69800,-0.71069;
18:50:43.111,-0.02954,-0.69873,-0.70801;
18:50:43.121,-0.02881,-0.69727,-0.70728;
18:50:43.131,-0.02954,-0.69751,-0.70947;
18:50:43.141,-0.02832,-0.69751,-0.70898;
18:50:43.151,-0.03052,-0.69556,-0.71045;
18:50:43.161,-0.02979,-0.69922,-0.71094;
18:50:43.171,-0.02930,-0.69775,-0.71021;
18:50:43.181,-0.03003,-0.69531,-0.71094;
18:50:43.191,-0.02905,-0.69507,-0.71265;
18:50:43.201,-0.03003,-0.69775,-0.71143;
18:50:43.211,-0.02881,-0.69800,-0.70947;
18:50:43.221,-0.02734,-0.69800,-0.70947;
18:50:43.231,-0.02856,-0.69727,-0.70654;
18:50:43.241,-0.02954,-0.69702,-0.71069;
18:50:43.251,-0.02881,-0.69751,-0.71143;
18:50:43.261,-0.03003,-0.69702,-0.70947;
18:50:43.271,-0.02979,-0.69751,-0.71289;
18:50:43.281,-0.02954,-0.69824,-0.70874;
18:50:43.291,-0.02954,-0.69873,-0.70728;
18:50:43.301,-0.02930,-0.69824,-0.70947;
18:50:43.311,-0.02856,-0.69629,-0.70801;
18:50:43.321,-0.02881,-0.69775,-0.71021;
18:50:43.331,-0.02954,-0.69727,-0.70996;
18:50:43.341,-0.02832,-0.69727,-0.70996;
18:50:43.351,-0.02856,-0.69751,-0.71167;
18:50:43.361,-0.02832,-0.69604,-0.71118;
18:50:43.371,-0.02832,-0.69678,-0.71265;
18:50:43.381,-0.02808,-0.69653,-0.71313;
18:50:43.391,-0.03003,-0.69702,-0.71094;
18:50:43.401,-0.02856,-0.69653,-0.71045;
18:50:43.411,-0.02954,-0.69775,-0.71167;
18:50:43.421,-0.02905,-0.69897,-0.70898;
18:50:43.431,-0.02808,-0.69897,-0.70898;
18:50:43.441,-0.02905,-0.69946,-0.70825;
18:50:43.451,-0.02832,-0.70020,-0.70532;
18:50:43.461,-0.02856,-0.69751,-0.70654;
18:50:43.471,-0.02832,-0.69922,-0.70874;
18:50:43.481,-0.02930,-0.69971,-0.70654;
18:50:43.491,-0.02759,-0.69897,-0.70630;
18:50:43.501,-0.02808,-0.69971,-0.71021;
18:50:43.511,-0.02905,-0.70190,-0.70581;
18:50:43.521,-0.02661,-0.69849,-0.70825;
18:50:43.531,-0.02686,-0.69702,-0.70947;
18:50:43.541,-0.02856,-0.69727,-0.70850;
18:50:43.551,-0.03027,-0.69556,-0.70996;
18:50:43.561,-0.03125,-0.69604,-0.70972;
18:50:43.571,-0.03076,-0.69678,-0.71191;
18:50:43.581,-0.02905,-0.69531,-0.71289;
18:50:43.591,-0.02905,-0.69531,-0.70996;
18:50:43.601,-0.03076,-0.69751,-0.71094;
18:50:43.611,-0.03052,-0.69751,-0.70972;
18:50:43.621,-0.02979,-0.69849,-0.70923;
18:50:43.631,-0.03027,-0.69897,-0.70923;
18:50:43.641,-0.02905,-0.69873,-0.70898;
18:50:43.651,-0.02979,-0.69971,-0.70557;
18:50:43.661,-0.02832,-0.70020,-0.70801;
18:50:43.671,-0.02930,-0.70093,-0.70801;
18:50:43.681,-0.02832,-0.69946,-0.70825;
18:50:43.691,-0.02808,-0.69873,-0.70874;
18:50:43.701,-0.02979,-0.69873,-0.70654;
18:50:43.711,-0.02905,-0.69946,-0.71069;
18:50:43.721,-0.02734,-0.69873,-0.70996;
18:50:43.731,-0.02637,-0.69775,-0.71021;
18:50:43.741,-0.02808,-0.69678,-0.70923;
18:50:43.751,-0.02783,-0.69775,-0.70874;
18:50:43.761,-0.02759,-0.69946,-0.71265;
18:50:43.771,-0.02832,-0.69824,-0.71338;
18:50:43.781,-0.03027,-0.69653,-0.71118;
18:50:43.791,-0.03296,-0.69458,-0.71143;
18:50:43.801,-0.03198,-0.69336,-0.71191;
18:50:43.811,-0.03125,-0.69678,-0.71143;
18:50:43.821,-0.03198,-0.69727,-0.70947;
18:50:43.831,-0.03198,-0.69727,-0.70898;
18:50:43.841,-0.03052,-0.69727,-0.71216;
18:50:43.851,-0.02856,-0.69653,-0.71069;
18:50:43.861,-0.02832,-0.69946,-0.71216;
18:50:43.871,-0.02734,-0.69971,-0.71289;
18:50:43.881,-0.02661,-0.69922,-0.71362;
18:50:43.891,-0.02686,-0.69775,-0.71362;
18:50:43.901,-0.02710,-0.70020,-0.71289;
18:50:43.911,-0.02661,-0.70068,-0.71240;
18:50:43.921,-0.02759,-0.69800,-0.70825;
18:50:43.931,-0.02930,-0.69873,-0.70874;
18:50:43.941,-0.03003,-0.69824,-0.70923;
18:50:43.951,-0.02979,-0.69702,-0.71094;
18:50:43.961,-0.03101,-0.69653,-0.71045;
18:50:43.971,-0.03027,-0.69873,-0.70996;
18:50:43.981,-0.02905,-0.69751,-0.71069;
18:50:43.991,-0.02979,-0.69775,-0.71094;
18:50:44.001,-0.02881,-0.69873,-0.70972;
18:50:44.011,-0.02734,-0.69800,-0.70679;
18:50:44.021,-0.02808,-0.70068,-0.70752;
18:50:44.031,-0.02832,-0.70410,-0.70630;
18:50:44.041,-0.02710,-0.70313,-0.70776;
18:50:44.051,-0.02783,-0.70459,-0.70654;
18:50:44.061,-0.02954,-0.70850,-0.70532;
18:50:44.071,-0.02881,-0.70557,-0.70654;
18:50:44.081,-0.02832,-0.70435,-0.70776;
18:50:44.091,-0.02808,-0.70459,-0.70508;
18:50:44.101,-0.02954,-0.70166,-0.70825;
18:50:44.111,-0.02905,-0.70264,-0.70898;
18:50:44.121,-0.02661,-0.70093,-0.70581;
18:50:44.131,-0.02808,-0.69971,-0.71069;
18:50:44.141,-0.03076,-0.69800,-0.71069;
18:50:44.151,-0.03076,-0.69751,-0.71021;
18:50:44.161,-0.02979,-0.69653,-0.70947;
18:50:44.171,-0.03076,-0.69531,-0.71191;
18:50:44.181,-0.02881,-0.69678,-0.71094;
18:50:44.191,-0.02856,-0.69849,-0.70923;
18:50:44.201,-0.02881,-0.69995,-0.71045;
18:50:44.211,-0.02905,-0.70337,-0.71021;
18:50:44.221,-0.02759,-0.70093,-0.71167;
18:50:44.231,-0.02905,-0.69946,-0.70752;
18:50:44.241,-0.03027,-0.69995,-0.70898;
18:50:44.251,-0.02905,-0.69873,-0.70850;
18:50:44.261,-0.02930,-0.69873,-0.71021;
18:50:44.271,-0.02979,-0.69946,-0.71045;
18:50:44.281,-0.02930,-0.70166,-0.70898;
18:50:44.291,-0.02905,-0.70020,-0.70874;
18:50:44.301,-0.02783,-0.70044,-0.70825;
18:50:44.311,-0.02954,-0.69897,-0.71094;
18:50:44.321,-0.03027,-0.69873,-0.71118;
18:50:44.331,-0.02905,-0.69824,-0.70898;
18:50:44.341,-0.03101,-0.69922,-0.71069;
18:50:44.351,-0.02979,-0.69897,-0.71021;
18:50:44.361,-0.02905,-0.69800,-0.70972;
18:50:44.371,-0.03027,-0.69800,-0.71191;
18:50:44.381,-0.02881,-0.69897,-0.71265;
18:50:44.391,-0.02832,-0.69824,-0.71094;
18:50:44.401,-0.03052,-0.69751,-0.71191;
18:50:44.411,-0.03149,-0.69922,-0.71216;
18:50:44.421,-0.02881,-0.69653,-0.70947;
18:50:44.431,-0.03076,-0.69678,-0.71167;
18:50:44.441,-0.03101,-0.69995,-0.71313;
18:50:44.451,-0.02905,-0.69849,-0.71143;
18:50:44.461,-0.02832,-0.69678,-0.71167;
18:50:44.471,-0.03003,-0.70068,-0.71021;
18:50:44.481,-0.02832,-0.69971,-0.70898;
18:50:44.491,-0.02930,-0.69775,-0.70972;
18:50:44.501,-0.03052,-0.69702,-0.71094;
18:50:44.511,-0.02905,-0.69629,-0.71240;
18:50:44.521,-0.03027,-0.69775,-0.70825;
18:50:44.531,-0.02881,-0.69727,-0.70947;
18:50:44.541,-0.03052,-0.69702,-0.70923;
18:50:44.551,-0.02832,-0.69653,-0.70850;
18:50:44.561,-0.02759,-0.69580,-0.71045;
18:50:44.571,-0.02905,-0.69775,-0.71191;
18:50:44.581,-0.02881,-0.69849,-0.71167;
18:50:44.591,-0.02881,-0.69775,-0.71069;
18:50:44.601,-0.02856,-0.69849,-0.70898;
18:50:44.611,-0.02979,-0.69922,-0.70972;
18:50:44.621,-0.02930,-0.70020,-0.71216;
18:50:44.631,-0.02954,-0.69849,-0.71094;
18:50:44.641,-0.02832,-0.70044,-0.70947;
18:50:44.651,-0.02734,-0.70190,-0.70874;
18:50:44.661,-0.02661,-0.69946,-0.71045;
18:50:44.671,-0.02759,-0.69971,-0.70776;
18:50:44.681,-0.02881,-0.69946,-0.70728;
18:50:44.691,-0.02881,-0.70117,-0.70923;
18:50:44.701,-0.02905,-0.70166,-0.70532;
18:50:44.711,-0.02808,-0.70093,-0.70679;
18:50:44.721,-0.03027,-0.70093,-0.71021;
18:50:44.731,-0.02954,-0.70020,-0.71143;
18:50:44.741,-0.02734,-0.69775,-0.70947;
18:50:44.751,-0.02905,-0.69897,-0.71021;
18:50:44.761,-0.02759,-0.69946,-0.71167;
18:50:44.771,-0.03003,-0.69873,-0.70996;
18:50:44.781,-0.02856,-0.69824,-0.71069;
18:50:44.791,-0.02881,-0.69800,-0.71045;
18:50:44.801,-0.02905,-0.69800,-0.70874;
18:50:44.811,-0.03003,-0.69678,-0.70947;
18:50:44.821,-0.02954,-0.69678,-0.70898;
18:50:44.831,-0.03003,-0.69873,-0.70996;
18:50:44.841,-0.02954,-0.69727,-0.70996;
18:50:44.851,-0.02881,-0.69580,-0.70776;
18:50:44.861,-0.02856,-0.69604,-0.70923;
18:50:44.871,-0.02881,-0.69629,-0.71069;
18:50:44.881,-0.02783,-0.69751,-0.71069;
18:50:44.891,-0.02905,-0.69678,-0.71216;
18:50:44.901,-0.03003,-0.69775,-0.71436;
18:50:44.911,-0.02808,-0.69824,-0.71118;
18:50:44.921,-0.02905,-0.69751,-0.70996;
18:50:44.931,-0.02930,-0.69531,-0.71021;
18:50:44.941,-0.02905,-0.69800,-0.70850;
18:50:44.951,-0.02979,-0.69727,-0.71021;
18:50:44.961,-0.02856,-0.69922,-0.70776;
18:50:44.971,-0.02881,-0.70117,-0.70679;
18:50:44.981,-0.02930,-0.69922,-0.70825;
18:50:44.991,-0.02930,-0.70044,-0.70776;
18:50:45.001,-0.03052,-0.69971,-0.70776;
18:50:45.011,-0.02783,-0.70044,-0.70679;
18:50:45.021,-0.02832,-0.70020,-0.70874;
18:50:45.031,-0.02930,-0.69946,-0.70850;
18:50:45.041,-0.02930,-0.70166,-0.71045;
18:50:45.051,-0.02979,-0.69897,-0.70972;
18:50:45.061,-0.03027,-0.69873,-0.70947;
18:50:45.071,-0.03003,-0.69971,-0.70972;
18:50:45.081,-0.02734,-0.69751,-0.71094;
18:50:45.091,-0.02759,-0.69897,-0.71094;
18:50:45.101,-0.02832,-0.69946,-0.70825;
18:50:45.111,-0.02856,-0.69678,-0.71118;
18:50:45.121,-0.02881,-0.69800,-0.71094;
18:50:45.131,-0.03052,-0.69678,-0.71338;
18:50:45.141,-0.03125,-0.69678,-0.71313;
18:50:45.151,-0.03052,-0.69727,-0.71069;
18:50:45.161,-0.02930,-0.69897,-0.71167;
18:50:45.171,-0.02832,-0.69775,-0.70947;
18:50:45.181,-0.02783,-0.70020,-0.70874;
18:50:45.191,-0.02954,-0.69946,-0.71045;
18:50:45.201,-0.03174,-0.69702,-0.70825;
18:50:45.211,-0.03027,-0.69800,-0.71045;
18:50:45.221,-0.02905,-0.69629,-0.71045;
18:50:45.231,-0.02954,-0.69849,-0.71021;
18:50:45.241,-0.02930,-0.70020,-0.71045;
18:50:45.251,-0.02881,-0.69849,-0.70801;
18:50:45.261,-0.02734,-0.69604,-0.70825;
18:50:45.271,-0.02808,-0.69702,-0.71069;
18:50:45.281,-0.02856,-0.69727,-0.70923;
18:50:45.291,-0.02783,-0.69727,-0.71240;
18:50:45.301,-0.02930,-0.69653,-0.71143;
18:50:45.311,-0.02954,-0.69946,-0.70996;
18:50:45.321,-0.02905,-0.69873,-0.71143;
18:50:45.331,-0.02881,-0.69629,-0.70825;
18:50:45.341,-0.02808,-0.69897,-0.70996;
18:50:45.351,-0.02856,-0.69897,-0.70630;
18:50:45.361,-0.03003,-0.70239,-0.71167;
18:50:45.371,-0.03003,-0.69946,-0.70923;
18:50:45.381,-0.02930,-0.70020,-0.70923;
18:50:45.391,-0.02930,-0.69849,-0.71021;
18:50:45.401,-0.02930,-0.69995,-0.70825;
18:50:45.411,-0.02930,-0.70044,-0.70801;
18:50:45.421,-0.02979,-0.69946,-0.71094;
18:50:45.431,-0.02954,-0.69775,-0.71094;
18:50:45.441,-0.02832,-0.69824,-0.71167;
18:50:45.451,-0.02856,-0.69971,-0.71094;
18:50:45.461,-0.02979,-0.69946,-0.71094;
18:50:45.471,-0.02808,-0.69727,-0.71191;
18:50:45.481,-0.02905,-0.69849,-0.70850;
18:50:45.491,-0.02930,-0.69653,-0.70972;
18:50:45.501,-0.02954,-0.69702,-0.71021;
18:50:45.511,-0.02930,-0.69653,-0.70972;
18:50:45.521,-0.02783,-0.69775,-0.71143;
18:50:45.531,-0.02881,-0.69702,-0.71094;
18:50:45.541,-0.02856,-0.69678,-0.71069;
18:50:45.551,-0.02856,-0.69873,-0.70923;
18:50:45.561,-0.02710,-0.69849,-0.71021;
18:50:45.571,-0.02832,-0.69946,-0.70923;
18:50:45.581,-0.02905,-0.70020,-0.70752;
18:50:45.591,-0.02856,-0.69971,-0.70850;
18:50:45.601,-0.02832,-0.69849,-0.70972;
18:50:45.611,-0.03027,-0.69824,-0.71167;
18:50:45.621,-0.03149,-0.69849,-0.70801;
18:50:45.631,-0.03052,-0.69727,-0.70776;
18:50:45.641,-0.02930,-0.69849,-0.70874;
18:50:45.651,-0.03003,-0.70020,-0.70947;
18:50:45.661,-0.03027,-0.69946,-0.70923;
18:50:45.671,-0.02808,-0.69873,-0.70923;
18:50:45.681,-0.02832,-0.69873,-0.71167;
18:50:45.691,-0.02759,-0.69897,-0.71094;
18:50:45.701,-0.02856,-0.69824,-0.70898;
18:50:45.711,-0.02905,-0.69775,-0.70874;
18:50:45.721,-0.02808,-0.69531,-0.70923;
18:50:45.731,-0.02930,-0.69751,-0.70679;
18:50:45.741,-0.02856,-0.69629,-0.71118;
18:50:45.751,-0.02759,-0.69409,-0.70923;
18:50:45.761,-0.02930,-0.69751,-0.70898;
18:50:45.771,-0.02856,-0.69702,-0.71045;
18:50:45.781,-0.02881,-0.69458,-0.70825;
18:50:45.791,-0.02930,-0.69458,-0.70972;
18:50:45.801,-0.02856,-0.69849,-0.70923;
18:50:45.811,-0.02783,-0.69775,-0.71021;
18:50:45.821,-0.02808,-0.69653,-0.70972;
18:50:45.831,-0.02808,-0.69604,-0.71069;
18:50:45.841,-0.02832,-0.69653,-0.70923;
18:50:45.851,-0.02808,-0.70044,-0.70728;
18:50:45.861,-0.02832,-0.69971,-0.70801;
18:50:45.871,-0.02905,-0.69995,-0.70874;
18:50:45.881,-0.02905,-0.69971,-0.70947;
18:50:45.891,-0.02832,-0.69849,-0.70728;
18:50:45.901,-0.02881,-0.69849,-0.70996;
18:50:45.911,-0.02856,-0.69897,-0.70947;
18:50:45.921,-0.02710,-0.69800,-0.70801;
18:50:45.931,-0.02881,-0.69922,-0.70874;
18:50:45.941,-0.02954,-0.69873,-0.70801;
18:50:45.951,-0.02783,-0.69751,-0.70947;
18:50:45.961,-0.02905,-0.69604,-0.70752;
18:50:45.971,-0.02954,-0.69629,-0.70923;
18:50:45.981,-0.02832,-0.69678,-0.70898;
18:50:45.991,-0.02930,-0.69873,-0.71094;
18:50:46.001,-0.02856,-0.69531,-0.71167;
18:50:46.011,-0.02856,-0.69507,-0.71045;
18:50:46.021,-0.02881,-0.69653,-0.71021;
18:50:46.031,-0.02783,-0.69775,-0.70996;
18:50:46.041,-0.02930,-0.69727,-0.71143;
18:50:46.051,-0.03027,-0.69849,-0.70996;
18:50:46.061,-0.02954,-0.69800,-0.70874;
18:50:46.071,-0.02905,-0.69897,-0.71167;
18:50:46.081,-0.02808,-0.69946,-0.71094;
18:50:46.091,-0.02612,-0.69873,-0.70972;
18:50:46.101,-0.02783,-0.70093,-0.71021;
18:50:46.111,-0.02808,-0.69849,-0.70850;
18:50:46.121,-0.02881,-0.70068,-0.71045;
18:50:46.131,-0.02954,-0.69971,-0.70898;
18:50:46.141,-0.02905,-0.69922,-0.70728;
18:50:46.151,-0.03027,-0.70142,-0.70874;
18:50:46.161,-0.03027,-0.69946,-0.70923;
18:50:46.171,-0.02832,-0.70117,-0.71484;
18:50:46.181,-0.02808,-0.69873,-0.71045;
18:50:46.191,-0.02979,-0.69971,-0.70679;
18:50:46.201,-0.02930,-0.70142,-0.70581;
18:50:46.211,-0.02832,-0.69873,-0.70898;
18:50:46.221,-0.03052,-0.69873,-0.71021;
18:50:46.231,-0.03027,-0.69995,-0.70825;
18:50:46.241,-0.02832,-0.69922,-0.71069;
18:50:46.251,-0.02881,-0.69800,-0.70850;
18:50:46.261,-0.02759,-0.69775,-0.70850;
18:50:46.271,-0.02808,-0.69727,-0.71021;
18:50:46.281,-0.02856,-0.69897,-0.71094;
18:50:46.291,-0.02832,-0.69775,-0.71118;
18:50:46.301,-0.02856,-0.69727,-0.71118;
