time,acc_x,acc_y,acc_z
18:42:32.024,-1.00049,0.01782,0.02783;
18:42:32.034,-1.00098,0.02319,0.02539;
18:42:32.044,-1.00122,0.02856,0.02271;
18:42:32.054,-1.00586,0.02856,0.02197;
18:42:32.064,-1.00610,0.03418,0.02124;
18:42:32.074,-1.00610,0.03638,0.01880;
18:42:32.084,-1.00732,0.03784,0.01709;
18:42:32.094,-1.00830,0.03882,0.01782;
18:42:32.104,-1.00977,0.04004,0.02197;
18:42:32.114,-1.00977,0.03735,0.02075;
18:42:32.124,-1.00854,0.03369,0.02319;
18:42:32.134,-1.00659,0.03149,0.02026;
18:42:32.144,-1.00732,0.02856,0.02490;
18:42:32.154,-1.00684,0.03003,0.02197;
18:42:32.164,-1.00806,0.02881,0.02319;
18:42:32.174,-1.00659,0.02979,0.02124;
18:42:32.184,-1.00464,0.03467,0.01929;
18:42:32.194,-1.00464,0.03540,0.01978;
18:42:32.204,-1.00635,0.03540,0.01685;
18:42:32.214,-1.00708,0.03589,0.02026;
18:42:32.224,-1.00659,0.03931,0.02026;
18:42:32.234,-1.00708,0.03955,0.01953;
18:42:32.244,-1.00635,0.03735,0.01953;
18:42:32.254,-1.00708,0.03857,0.01758;
18:42:32.264,-1.00879,0.04199,0.01660;
18:42:32.274,-1.00757,0.04199,0.01636;
18:42:32.284,-1.00757,0.04346,0.02075;
18:42:32.294,-1.00732,0.04102,0.01978;
18:42:32.304,-1.00464,0.04004,0.01489;
18:42:32.314,-1.00317,0.04346,0.01685;
18:42:32.324,-1.00488,0.04395,0.01636;
18:42:32.334,-1.00732,0.04102,0.01685;
18:42:32.344,-1.00806,0.03931,0.01758;
18:42:32.354,-1.00806,0.04126,0.01709;
18:42:32.364,-1.00562,0.03760,0.01929;
18:42:32.374,-1.00537,0.03711,0.01904;
18:42:32.384,-1.00488,0.03784,0.01904;
18:42:32.394,-1.00513,0.04004,0.01660;
18:42:32.404,-1.00708,0.04028,0.01587;
18:42:32.414,-1.00684,0.03931,0.01538;
18:42:32.424,-1.00830,0.04126,0.01587;
18:42:32.434,-1.00806,0.04272,0.01587;
18:42:32.444,-1.00732,0.04175,0.01416;
18:42:32.454,-1.00732,0.03979,0.01782;
18:42:32.464,-1.00635,0.04053,0.01831;
18:42:32.474,-1.00708,0.04004,0.01807;
18:42:32.484,-1.00854,0.03931,0.01636;
18:42:32.494,-1.00659,0.03955,0.01440;
18:42:32.504,-1.00635,0.03833,0.01489;
18:42:32.514,-1.00830,0.04077,0.01587;
18:42:32.524,-1.00757,0.03809,0.01978;
18:42:32.534,-1.00757,0.03638,0.01782;
18:42:32.544,-1.00635,0.03613,0.01563;
18:42:32.554,-1.00757,0.03540,0.01636;
18:42:32.564,-1.00464,0.03882,0.01636;
18:42:32.574,-1.00391,0.03809,0.01538;
18:42:32.584,-1.00635,0.03564,0.01367;
18:42:32.594,-1.00586,0.03687,0.01563;
18:42:32.604,-1.00659,0.03906,0.01563;
18:42:32.614,-1.00708,0.03857,0.01660;
18:42:32.624,-1.00708,0.03931,0.01587;
18:42:32.634,-1.00684,0.03711,0.01563;
18:42:32.644,-1.00757,0.03882,0.01416;
18:42:32.654,-1.00806,0.03857,0.01343;
18:42:32.664,-1.00781,0.04028,0.01318;
18:42:32.674,-1.00708,0.03857,0.01318;
18:42:32.684,-1.00757,0.03687,0.01416;
18:42:32.694,-1.00781,0.03735,0.01587;
18:42:32.704,-1.00781,0.03589,0.01782;
18:42:32.714,-1.00732,0.03638,0.01563;
18:42:32.724,-1.00684,0.03711,0.01636;
18:42:32.734,-1.00708,0.03857,0.01489;
18:42:32.744,-1.00732,0.03687,0.01587;
18:42:32.754,-1.00586,0.03760,0.01489;
18:42:32.764,-1.00659,0.03931,0.01294;
18:42:32.774,-1.00708,0.03809,0.01270;
18:42:32.784,-1.00708,0.03906,0.01465;
18:42:32.794,-1.00562,0.03931,0.01831;
18:42:32.804,-1.00586,0.03809,0.01782;
18:42:32.814,-1.00659,0.03979,0.01392;
18:42:32.824,-1.00757,0.03955,0.01489;
18:42:32.834,-1.00708,0.03760,0.01440;
18:42:32.844,-1.00659,0.04004,0.01538;
18:42:32.854,-1.00708,0.03809,0.01587;
18:42:32.864,-1.00610,0.03906,0.01392;
18:42:32.874,-1.00610,0.03906,0.01709;
18:42:32.884,-1.00635,0.03662,0.01416;
18:42:32.894,-1.00854,0.03784,0.01245;
18:42:32.904,-1.00781,0.03931,0.01587;
18:42:32.914,-1.00488,0.04028,0.01685;
18:42:32.924,-1.00659,0.03979,0.01611;
18:42:32.934,-1.00610,0.03687,0.01514;
18:42:32.944,-1.00562,0.03833,0.01538;
18:42:32.954,-1.00537,0.04077,0.01807;
18:42:32.964,-1.00586,0.04053,0.01733;
18:42:32.974,-1.00659,0.03979,0.01758;
18:42:32.984,-1.00684,0.03979,0.01709;
18:42:32.994,-1.00781,0.03906,0.01855;
18:42:33.004,-1.00684,0.03857,0.01685;
18:42:33.014,-1.00635,0.03882,0.01636;
18:42:33.024,-1.00659,0.04004,0.01660;
18:42:33.034,-1.00830,0.04028,0.01563;
18:42:33.044,-1.00854,0.04346,0.01611;
18:42:33.054,-1.00708,0.04150,0.01587;
18:42:33.064,-1.00635,0.04150,0.01831;
18:42:33.074,-1.00220,0.04248,0.01294;
18:42:33.084,-1.00513,0.04541,0.01221;
18:42:33.094,-1.00610,0.04614,0.01514;
18:42:33.104,-1.00537,0.04639,0.01611;
18:42:33.114,-1.00854,0.04053,0.02100;
18:42:33.124,-1.00806,0.04272,0.01880;
18:42:33.134,-1.00781,0.04443,0.01685;
18:42:33.144,-1.00732,0.04443,0.01538;
18:42:33.154,-1.00684,0.04517,0.01782;
18:42:33.164,-1.00732,0.04590,0.01685;
18:42:33.174,-1.00708,0.04907,0.01514;
18:42:33.184,-1.00928,0.04712,0.01978;
18:42:33.194,-1.00830,0.04639,0.01758;
18:42:33.204,-1.00830,0.04614,0.01929;
18:42:33.214,-1.00586,0.04614,0.01782;
18:42:33.224,-1.00806,0.04834,0.01563;
18:42:33.234,-1.00610,0.05127,0.01831;
18:42:33.244,-1.00635,0.05029,0.01685;
18:42:33.254,-1.00586,0.05273,0.02197;
18:42:33.264,-1.00732,0.05371,0.01855;
18:42:33.274,-1.00562,0.05225,0.01733;
18:42:33.284,-1.00635,0.05225,0.01929;
18:42:33.294,-1.00732,0.05127,0.01929;
18:42:33.304,-1.00757,0.04883,0.02124;
18:42:33.314,-1.00757,0.05054,0.02002;
18:42:33.324,-1.00732,0.05273,0.02002;
18:42:33.334,-1.00830,0.05029,0.02124;
18:42:33.344,-1.00659,0.05029,0.02173;
18:42:33.354,-1.00806,0.05103,0.02075;
18:42:33.364,-1.00732,0.05176,0.02271;
18:42:33.374,-1.00635,0.04956,0.02124;
18:42:33.384,-1.00781,0.04980,0.01855;
18:42:33.394,-1.00586,0.04980,0.02222;
18:42:33.404,-1.00708,0.05029,0.02246;
18:42:33.414,-1.00586,0.04980,0.02271;
18:42:33.424,-1.00464,0.05200,0.02148;
18:42:33.434,-1.00562,0.05127,0.02075;
18:42:33.444,-1.00562,0.04907,0.02197;
18:42:33.454,-1.00488,0.05005,0.02197;
18:42:33.464,-1.00586,0.04956,0.02051;
18:42:33.474,-1.00610,0.05151,0.02271;
18:42:33.484,-1.00708,0.05005,0.02661;
18:42:33.494,-1.00586,0.04785,0.02368;
18:42:33.504,-1.00635,0.04761,0.02539;
18:42:33.514,-1.00684,0.04810,0.02441;
18:42:33.524,-1.00513,0.04883,0.02173;
18:42:33.534,-1.00757,0.04883,0.02490;
18:42:33.544,-1.00635,0.05127,0.02490;
18:42:33.554,-1.00635,0.04980,0.02637;
18:42:33.564,-1.00635,0.04761,0.02490;
18:42:33.574,-1.00781,0.04810,0.02539;
18:42:33.584,-1.00562,0.04834,0.02222;
18:42:33.594,-1.00415,0.04834,0.02368;
18:42:33.604,-1.00537,0.04932,0.02319;
18:42:33.614,-1.00391,0.04932,0.02344;
18:42:33.624,-1.00488,0.04736,0.02563;
18:42:33.634,-1.00415,0.04712,0.02563;
18:42:33.644,-1.00439,0.04907,0.02710;
18:42:33.654,-1.00684,0.04761,0.02271;
18:42:33.664,-1.00684,0.04736,0.02246;
18:42:33.674,-1.00659,0.04932,0.02588;
18:42:33.684,-1.00684,0.04761,0.02637;
18:42:33.694,-1.00610,0.04614,0.02783;
18:42:33.704,-1.00708,0.04614,0.02954;
18:42:33.714,-1.00659,0.04614,0.02588;
18:42:33.724,-1.00586,0.04590,0.02393;
18:42:33.734,-1.00513,0.04810,0.02344;
18:42:33.744,-1.00513,0.04834,0.02319;
18:42:33.754,-1.00562,0.04810,0.02441;
18:42:33.764,-1.00488,0.04688,0.02490;
18:42:33.774,-1.00586,0.04810,0.02173;
18:42:33.784,-1.00659,0.05127,0.02490;
18:42:33.794,-1.00708,0.04956,0.02808;
18:42:33.804,-1.00659,0.05298,0.02515;
18:42:33.814,-1.00610,0.05029,0.02466;
18:42:33.824,-1.00708,0.05103,0.02466;
18:42:33.834,-1.00708,0.04834,0.02368;
18:42:33.844,-1.00586,0.04858,0.02759;
18:42:33.854,-1.00659,0.04590,0.02563;
18:42:33.864,-1.00464,0.04810,0.02490;
18:42:33.874,-1.00488,0.05249,0.02393;
18:42:33.884,-1.00537,0.05078,0.02026;
18:42:33.894,-1.00366,0.04932,0.02563;
18:42:33.904,-1.00488,0.05151,0.02466;
18:42:33.914,-1.00439,0.04810,0.02588;
18:42:33.924,-1.00269,0.05103,0.02686;
18:42:33.934,-1.00464,0.05273,0.02466;
18:42:33.944,-1.00610,0.05151,0.02588;
18:42:33.954,-1.00586,0.05273,0.02368;
18:42:33.964,-1.00586,0.05444,0.02295;
18:42:33.974,-1.00513,0.05542,0.02441;
18:42:33.984,-1.00342,0.05298,0.02539;
18:42:33.994,-1.00342,0.05493,0.02832;
18:42:34.004,-1.00391,0.05396,0.02734;
18:42:34.014,-1.00513,0.05615,0.02393;
18:42:34.024,-1.00537,0.05615,0.01929;
18:42:34.034,-1.00391,0.05322,0.02100;
18:42:34.044,-1.00464,0.05518,0.02124;
18:42:34.054,-1.00586,0.05884,0.02271;
18:42:34.064,-1.00562,0.05640,0.02832;
18:42:34.074,-1.00781,0.05518,0.02637;
18:42:34.084,-1.00830,0.05518,0.02441;
18:42:34.094,-1.00830,0.04907,0.02368;
18:42:34.104,-1.00806,0.04688,0.02515;
18:42:34.114,-1.00732,0.04834,0.02539;
18:42:34.124,-1.00610,0.05176,0.02441;
18:42:34.134,-1.00317,0.05420,0.02490;
18:42:34.144,-1.00293,0.05298,0.02710;
18:42:34.154,-1.00439,0.05371,0.02612;
18:42:34.164,-1.00708,0.04980,0.03052;
18:42:34.174,-1.00635,0.04956,0.03442;
18:42:34.184,-1.00610,0.05029,0.03027;
18:42:34.194,-1.00586,0.04956,0.02881;
18:42:34.204,-1.00464,0.04932,0.03027;
18:42:34.214,-1.00464,0.05151,0.02783;
18:42:34.224,-1.00732,0.05078,0.03125;
18:42:34.234,-1.00708,0.05127,0.03760;
18:42:34.244,-1.00537,0.04932,0.03735;
18:42:34.254,-1.00537,0.04834,0.03491;
18:42:34.264,-1.00439,0.05078,0.03516;
18:42:34.274,-1.00317,0.05420,0.03833;
18:42:34.284,-1.00488,0.05347,0.03760;
18:42:34.294,-1.00684,0.05078,0.03613;
18:42:34.304,-1.00610,0.05225,0.03784;
18:42:34.314,-1.00513,0.04834,0.04199;
18:42:34.324,-1.00415,0.04785,0.04272;
18:42:34.334,-1.00366,0.05176,0.05054;
18:42:34.344,-1.00610,0.04932,0.04883;
18:42:34.354,-1.00513,0.04883,0.04663;
18:42:34.364,-1.00610,0.04956,0.05151;
18:42:34.374,-1.00830,0.04346,0.06885;
18:42:34.384,-1.00781,0.04419,0.07007;
18:42:34.394,-1.00732,0.04199,0.07349;
18:42:34.404,-1.00659,0.04395,0.07568;
18:42:34.414,-1.00806,0.04443,0.07397;
18:42:34.424,-1.00879,0.04028,0.07739;
18:42:34.434,-1.00854,0.04199,0.07935;
18:42:34.444,-1.00684,0.04077,0.08398;
18:42:34.454,-1.00781,0.03735,0.08838;
18:42:34.464,-1.00854,0.03662,0.08813;
18:42:34.474,-1.00684,0.03809,0.08936;
18:42:34.484,-1.00488,0.03833,0.08789;
18:42:34.494,-1.00244,0.03857,0.09106;
18:42:34.504,-1.00024,0.03687,0.09326;
18:42:34.514,-1.00244,0.03809,0.09082;
18:42:34.524,-1.00220,0.03760,0.09399;
18:42:34.534,-1.00073,0.03882,0.09839;
18:42:34.544,-1.00269,0.03809,0.09912;
18:42:34.554,-1.00439,0.03687,0.09863;
18:42:34.564,-1.00342,0.03687,0.10010;
18:42:34.574,-1.00244,0.03198,0.10645;
18:42:34.584,-1.00391,0.03271,0.10986;
18:42:34.594,-1.00366,0.03271,0.11035;
18:42:34.604,-1.00342,0.03613,0.11108;
18:42:34.614,-1.00244,0.03687,0.11353;
18:42:34.624,-1.00146,0.03418,0.11499;
18:42:34.634,-1.00098,0.03320,0.12012;
18:42:34.644,-1.00293,0.03271,0.12134;
18:42:34.654,-1.00171,0.03223,0.12085;
18:42:34.664,-1.00171,0.03247,0.12354;
18:42:34.674,-1.00513,0.03198,0.12207;
18:42:34.684,-1.00513,0.03491,0.12183;
18:42:34.694,-1.00488,0.03223,0.12524;
18:42:34.704,-1.00415,0.03516,0.12769;
18:42:34.714,-1.00244,0.03442,0.13647;
18:42:34.724,-1.00513,0.03491,0.14282;
18:42:34.734,-1.00610,0.03540,0.14185;
18:42:34.744,-1.00659,0.02808,0.14111;
18:42:34.754,-1.00586,0.03174,0.13892;
18:42:34.764,-1.00513,0.03125,0.13843;
18:42:34.774,-1.00537,0.03491,0.13574;
18:42:34.784,-1.00488,0.03979,0.13159;
18:42:34.794,-1.00269,0.03735,0.13721;
18:42:34.804,-1.00146,0.03394,0.13770;
18:42:34.814,-1.00317,0.03296,0.13623;
18:42:34.824,-1.00317,0.03125,0.14355;
18:42:34.834,-1.00146,0.02734,0.14380;
18:42:34.844,-0.99292,0.02368,0.14380;
18:42:34.854,-0.99585,0.02466,0.14795;
18:42:34.864,-0.99609,0.02222,0.14697;
18:42:34.874,-0.99854,0.02539,0.14526;
18:42:34.884,-1.00146,0.02783,0.14575;
18:42:34.894,-1.00317,0.02979,0.14990;
18:42:34.904,-1.00220,0.02710,0.14795;
18:42:34.914,-1.00317,0.02710,0.14941;
18:42:34.924,-1.00562,0.02856,0.15186;
18:42:34.934,-1.00537,0.02881,0.15430;
18:42:34.944,-1.00708,0.02808,0.15723;
18:42:34.954,-1.00806,0.02832,0.15723;
18:42:34.964,-1.00781,0.03125,0.16138;
18:42:34.974,-1.00586,0.02905,0.16382;
18:42:34.984,-1.00269,0.02808,0.16870;
18:42:34.994,-1.00220,0.02881,0.16553;
18:42:35.004,-1.00464,0.02686,0.15649;
18:42:35.014,-1.00977,0.02441,0.15723;
18:42:35.024,-1.01050,0.02319,0.16138;
18:42:35.034,-1.00708,0.01831,0.16650;
18:42:35.044,-1.00610,0.01880,0.16675;
18:42:35.054,-1.00488,0.02954,0.15894;
18:42:35.064,-1.01001,0.03809,0.15063;
18:42:35.074,-1.02563,0.04956,0.14990;
18:42:35.084,-1.04126,0.06079,0.17310;
18:42:35.094,-1.05200,0.07495,0.19873;
18:42:35.104,-1.06079,0.08496,0.19897;
18:42:35.114,-1.07739,0.09009,0.19409;
18:42:35.124,-1.09863,0.08838,0.17212;
18:42:35.134,-1.11792,0.08447,0.16504;
18:42:35.144,-1.12720,0.09204,0.16943;
18:42:35.154,-1.12988,0.09839,0.17578;
18:42:35.164,-1.13403,0.10352,0.19116;
18:42:35.174,-1.13989,0.08472,0.19702;
18:42:35.184,-1.15186,0.06958,0.19971;
18:42:35.194,-1.16797,0.07056,0.19263;
18:42:35.204,-1.17163,0.07544,0.19067;
18:42:35.214,-1.16235,0.07837,0.19482;
18:42:35.224,-1.14380,0.07031,0.21265;
18:42:35.234,-1.12256,0.05420,0.23608;
18:42:35.244,-1.11157,0.00366,0.24243;
18:42:35.254,-1.10693,-0.07397,0.26270;
18:42:35.264,-1.08301,-0.13477,0.30542;
18:42:35.274,-1.05640,-0.15991,0.34546;
18:42:35.284,-1.03589,-0.16943,0.35815;
18:42:35.294,-1.01416,-0.18140,0.36060;
18:42:35.304,-0.98315,-0.23608,0.37622;
18:42:35.314,-0.95825,-0.35376,0.39307;
18:42:35.324,-0.95117,-0.46216,0.40576;
18:42:35.334,-0.92383,-0.49951,0.43677;
18:42:35.344,-0.90039,-0.45776,0.48145;
18:42:35.354,-0.89014,-0.38428,0.47998;
18:42:35.364,-0.87061,-0.34619,0.45044;
18:42:35.374,-0.86548,-0.34033,0.35791;
18:42:35.384,-0.83569,-0.25928,0.28076;
18:42:35.394,-0.77661,-0.14014,0.24976;
18:42:35.404,-0.74438,-0.11035,0.24731;
18:42:35.414,-0.75586,-0.16919,0.20190;
18:42:35.424,-0.76318,-0.21802,0.23218;
18:42:35.434,-0.76245,-0.24878,0.24805;
18:42:35.444,-0.76172,-0.27344,0.25684;
18:42:35.454,-0.76074,-0.29565,0.27344;
18:42:35.464,-0.76050,-0.31567,0.27783;
18:42:35.474,-0.76050,-0.32617,0.27954;
18:42:35.484,-0.75220,-0.32568,0.28564;
18:42:35.494,-0.74341,-0.32959,0.28174;
18:42:35.504,-0.73340,-0.32422,0.26025;
18:42:35.514,-0.71533,-0.27051,0.22729;
18:42:35.524,-0.69092,-0.18677,0.18042;
18:42:35.534,-0.65771,-0.12109,0.12891;
18:42:35.544,-0.61938,-0.07959,0.06836;
18:42:35.554,-0.58691,-0.03760,0.01416;
18:42:35.564,-0.56714,0.01025,-0.03149;
18:42:35.574,-0.55273,0.06689,-0.08350;
18:42:35.584,-0.54126,0.00586,-0.12524;
18:42:35.594,-0.63940,-0.47192,0.02002;
18:42:35.604,-0.87500,-0.76685,-0.10742;
18:42:35.614,-1.06348,-0.96851,-0.37427;
18:42:35.624,-1.05737,-0.69482,-0.65771;
18:42:35.634,-0.76367,-0.26367,-0.90894;
18:42:35.644,-0.54419,-0.03540,-0.88916;
18:42:35.654,-0.61914,-0.22119,-0.87915;
18:42:35.664,-0.85986,-0.60522,-1.05225;
18:42:35.674,-0.99487,-0.51514,-0.81689;
18:42:35.684,-1.01025,0.14722,-0.45142;
18:42:35.694,-1.04639,0.33374,-0.20947;
18:42:35.704,-1.23779,0.00708,0.18701;
18:42:35.714,-1.34497,-0.22900,0.45532;
18:42:35.724,-1.29077,-0.29712,0.60400;
18:42:35.734,-1.30786,-0.27881,0.57886;
18:42:35.744,-1.32642,-0.22705,0.39966;
18:42:35.754,-1.28467,-0.16040,0.17456;
18:42:35.764,-1.15234,-0.00708,-0.11328;
18:42:35.774,-1.10815,-0.03003,-0.09521;
18:42:35.784,-1.07007,-0.09155,-0.04419;
18:42:35.794,-1.04321,-0.14087,-0.00195;
18:42:35.804,-1.06909,-0.14893,-0.00879;
18:42:35.814,-1.11865,-0.12549,-0.04614;
18:42:35.824,-1.19434,-0.09497,-0.02124;
18:42:35.834,-1.30103,-0.01001,-0.02417;
18:42:35.844,-1.44702,0.09668,-0.02466;
18:42:35.854,-1.33130,0.07178,-0.04248;
18:42:35.864,-1.20459,0.00122,-0.07275;
18:42:35.874,-1.14429,-0.04834,-0.05396;
18:42:35.884,-1.01196,-0.11060,-0.06079;
18:42:35.894,-0.94092,-0.20337,-0.09375;
18:42:35.904,-0.87695,-0.26855,-0.13989;
18:42:35.914,-0.86987,-0.25610,-0.15820;
18:42:35.924,-0.95776,-0.11572,-0.10522;
18:42:35.934,-1.01196,-0.09082,-0.08179;
18:42:35.944,-0.98511,-0.11328,-0.08472;
18:42:35.954,-0.98486,-0.08472,-0.09058;
18:42:35.964,-0.98779,-0.04932,-0.10596;
18:42:35.974,-0.99194,-0.03125,-0.11108;
18:42:35.984,-1.00342,-0.01563,-0.11768;
18:42:35.994,-1.00000,-0.00708,-0.12207;
18:42:36.004,-0.99048,-0.00903,-0.07959;
18:42:36.014,-1.00000,-0.02441,-0.03906;
18:42:36.024,-0.99927,-0.01953,-0.05054;
18:42:36.034,-1.00635,0.02417,-0.06030;
18:42:36.044,-1.01978,0.06641,-0.09155;
18:42:36.054,-1.01343,0.07715,-0.11890;
18:42:36.064,-1.00854,0.06226,-0.10742;
18:42:36.074,-1.00684,0.05957,-0.10962;
18:42:36.084,-0.99707,0.06689,-0.13403;
18:42:36.094,-0.99023,0.07031,-0.14233;
18:42:36.104,-0.99805,0.08325,-0.13452;
18:42:36.114,-1.00098,0.09399,-0.13477;
18:42:36.124,-0.99683,0.08740,-0.11914;
18:42:36.134,-1.00269,0.08765,-0.12231;
18:42:36.144,-1.00073,0.10132,-0.13867;
18:42:36.154,-0.99805,0.11597,-0.14136;
18:42:36.164,-1.00122,0.13110,-0.14600;
18:42:36.174,-0.99927,0.13672,-0.13647;
18:42:36.184,-0.99341,0.13110,-0.12769;
18:42:36.194,-0.98755,0.12671,-0.11133;
18:42:36.204,-0.99976,0.11768,-0.11841;
18:42:36.214,-1.00586,0.11450,-0.14038;
18:42:36.224,-0.99121,0.13379,-0.14844;
18:42:36.234,-0.98096,0.13794,-0.14771;
18:42:36.244,-0.98071,0.12183,-0.14551;
18:42:36.254,-0.97778,0.09937,-0.16064;
18:42:36.264,-0.98340,0.10693,-0.15405;
18:42:36.274,-1.00049,0.10254,-0.14502;
18:42:36.284,-0.99829,0.11206,-0.14160;
18:42:36.294,-0.98389,0.13428,-0.12036;
18:42:36.304,-1.00488,0.14697,-0.11768;
18:42:36.314,-1.01123,0.16064,-0.13110;
18:42:36.324,-1.01660,0.14795,-0.11963;
18:42:36.334,-1.04321,0.13452,-0.12744;
18:42:36.344,-1.04541,0.16992,-0.13843;
18:42:36.354,-1.07910,0.25049,-0.10254;
18:42:36.364,-1.11621,0.19141,-0.08496;
18:42:36.374,-1.19482,0.12769,-0.07007;
18:42:36.384,-1.25220,0.08228,-0.07031;
18:42:36.394,-1.24292,0.08960,-0.07617;
18:42:36.404,-1.19580,0.17651,-0.04370;
18:42:36.414,-1.15039,0.25464,-0.03442;
18:42:36.424,-1.08911,0.30957,-0.02759;
18:42:36.434,-1.03516,0.28613,-0.06445;
18:42:36.444,-0.96216,0.36084,-0.04712;
18:42:36.454,-0.89526,0.05518,-0.14893;
18:42:36.464,-1.47632,-1.10522,0.57153;
18:42:36.474,-1.22949,-0.21191,0.17383;
18:42:36.484,-1.16577,-0.08057,0.06982;
18:42:36.494,-1.11401,-0.21118,0.20996;
18:42:36.504,-1.09668,-0.29810,0.39136;
18:42:36.514,-1.15674,-0.28125,0.36694;
18:42:36.524,-1.19873,-0.18066,0.30542;
18:42:36.534,-1.25269,-0.13770,0.24854;
18:42:36.544,-1.26147,-0.12402,0.25366;
18:42:36.554,-1.27148,-0.13696,0.24585;
18:42:36.564,-1.28394,-0.14331,0.23633;
18:42:36.574,-1.30078,-0.12524,0.24365;
18:42:36.584,-1.30200,-0.06421,0.26904;
18:42:36.594,-1.28345,-0.03809,0.28296;
18:42:36.604,-1.26221,-0.05933,0.28564;
18:42:36.614,-1.25830,-0.08228,0.28833;
18:42:36.624,-1.25977,-0.10791,0.26782;
18:42:36.634,-1.25537,-0.11353,0.24072;
18:42:36.644,-1.23242,-0.09082,0.25732;
18:42:36.654,-1.20874,-0.07959,0.27466;
18:42:36.664,-1.17090,-0.08105,0.27271;
18:42:36.674,-1.14258,-0.07397,0.25659;
18:42:36.684,-1.12061,-0.06055,0.22339;
18:42:36.694,-1.06812,-0.04199,0.18750;
18:42:36.704,-1.01880,-0.01514,0.13940;
18:42:36.714,-0.97363,0.01343,0.10596;
18:42:36.724,-0.93042,0.00171,0.07349;
18:42:36.734,-0.89404,-0.01270,0.04639;
18:42:36.744,-0.86450,0.01489,0.03735;
18:42:36.754,-0.83667,0.04272,0.01929;
18:42:36.764,-0.77441,0.03882,-0.00513;
18:42:36.774,-0.75122,0.05103,-0.01733;
18:42:36.784,-0.71948,0.04736,-0.02783;
18:42:36.794,-0.68213,0.03223,-0.02368;
18:42:36.804,-0.65186,0.00439,-0.01587;
18:42:36.814,-0.63110,0.00195,-0.00488;
18:42:36.824,-0.60889,0.03491,0.00073;
18:42:36.834,-0.57739,0.03833,-0.00732;
18:42:36.844,-0.56470,0.03516,-0.01270;
18:42:36.854,-0.56104,0.06592,-0.02832;
18:42:36.864,-0.49756,0.06470,-0.02100;
18:42:36.874,-0.54956,-0.01807,-0.01636;
18:42:36.884,-0.72534,0.14941,-0.15771;
18:42:36.894,-0.55933,0.37622,-0.26782;
18:42:36.904,-0.25879,0.39917,-0.06372;
18:42:36.914,-0.47583,0.74976,-0.13281;
18:42:36.924,-0.81885,1.32666,-0.59448;
18:42:36.934,-3.05371,-0.80518,-1.19092;
18:42:36.944,-1.77881,1.74487,-1.32813;
18:42:36.954,-0.79272,1.26831,-1.26685;
18:42:36.964,-1.79077,0.53979,-0.56738;
18:42:36.974,-1.45459,0.31470,-0.03027;
18:42:36.984,-1.47974,-0.20874,0.63916;
18:42:36.994,-1.14014,-0.25171,0.74585;
18:42:37.004,-1.40698,-0.08081,0.25439;
18:42:37.014,-1.58862,0.18506,-0.10986;
18:42:37.024,-1.34375,0.20483,-0.05615;
18:42:37.034,-1.41455,0.21338,0.14771;
18:42:37.044,-1.18188,-0.00952,0.08374;
18:42:37.054,-1.10303,-0.01172,-0.03711;
18:42:37.064,-1.00854,0.01001,-0.13623;
18:42:37.074,-1.00684,0.03223,-0.19287;
18:42:37.084,-0.98682,0.02466,-0.21509;
18:42:37.094,-1.01343,0.02026,-0.16260;
18:42:37.104,-1.00977,-0.01831,-0.10864;
18:42:37.114,-0.99121,-0.06250,-0.06274;
18:42:37.124,-0.96973,-0.10425,-0.03662;
18:42:37.134,-0.93872,-0.13354,-0.00928;
18:42:37.144,-0.89722,-0.15918,0.01196;
18:42:37.154,-0.87524,-0.15991,-0.00781;
18:42:37.164,-0.87280,-0.13330,-0.06030;
18:42:37.174,-0.88379,-0.09790,-0.10205;
18:42:37.184,-0.90552,-0.07617,-0.11401;
18:42:37.194,-0.93701,-0.05249,-0.10693;
18:42:37.204,-0.96143,-0.02930,-0.09229;
18:42:37.214,-0.99219,-0.01514,-0.05933;
18:42:37.224,-1.01953,-0.01025,-0.00854;
18:42:37.234,-1.04248,-0.01147,0.01196;
18:42:37.244,-1.04883,-0.00342,0.00415;
18:42:37.254,-1.03931,0.01392,-0.03125;
18:42:37.264,-1.02515,0.03149,-0.07471;
18:42:37.274,-1.01440,0.04736,-0.09912;
18:42:37.284,-1.02563,0.06812,-0.10596;
18:42:37.294,-1.02808,0.07178,-0.08789;
18:42:37.304,-1.02954,0.05737,-0.07544;
18:42:37.314,-1.02417,0.04565,-0.07080;
18:42:37.324,-1.01929,0.04297,-0.07813;
18:42:37.334,-1.01538,0.04346,-0.10327;
18:42:37.344,-1.00391,0.05591,-0.11523;
18:42:37.354,-0.99805,0.05371,-0.12109;
18:42:37.364,-0.99707,0.03784,-0.11108;
18:42:37.374,-0.99756,0.02759,-0.08618;
18:42:37.384,-0.99780,0.01440,-0.06689;
18:42:37.394,-0.99829,0.00879,-0.07373;
18:42:37.404,-0.99243,0.01318,-0.08887;
18:42:37.414,-0.98242,0.02246,-0.08643;
18:42:37.424,-0.98267,0.02905,-0.08594;
18:42:37.434,-0.98438,0.03198,-0.08740;
18:42:37.444,-0.98608,0.04004,-0.08716;
18:42:37.454,-0.99268,0.04468,-0.08911;
18:42:37.464,-0.99072,0.04785,-0.09351;
18:42:37.474,-0.99048,0.05664,-0.08838;
18:42:37.484,-0.99927,0.06128,-0.08398;
18:42:37.494,-1.00513,0.06201,-0.08423;
18:42:37.504,-1.00977,0.06079,-0.08569;
18:42:37.514,-1.01196,0.06372,-0.08398;
18:42:37.524,-1.01343,0.06128,-0.08203;
18:42:37.534,-1.01025,0.06934,-0.08423;
18:42:37.544,-1.01147,0.07471,-0.09424;
18:42:37.554,-1.01392,0.08008,-0.11426;
18:42:37.564,-1.00586,0.10815,-0.12329;
18:42:37.574,-1.01758,0.06274,-0.05151;
18:42:37.584,-1.02661,0.09497,-0.10596;
18:42:37.594,-1.01147,0.14575,-0.12793;
18:42:37.604,-1.00708,0.16113,-0.15381;
18:42:37.614,-1.00635,0.14990,-0.14136;
18:42:37.624,-1.01270,0.14014,-0.10352;
18:42:37.634,-1.01538,0.12524,-0.07300;
18:42:37.644,-1.01245,0.10571,-0.04639;
18:42:37.654,-1.01050,0.08740,-0.03125;
18:42:37.664,-1.00830,0.07104,-0.02734;
18:42:37.674,-1.00439,0.06470,-0.03735;
18:42:37.684,-1.00049,0.06665,-0.05420;
18:42:37.694,-0.99878,0.07568,-0.06958;
18:42:37.704,-0.99756,0.08667,-0.07764;
18:42:37.714,-1.00049,0.08740,-0.08398;
18:42:37.724,-1.00195,0.08105,-0.07373;
18:42:37.734,-1.00488,0.06787,-0.05615;
18:42:37.744,-1.01147,0.04395,-0.04053;
18:42:37.754,-1.01611,0.02905,-0.02783;
18:42:37.764,-1.03174,0.03027,-0.03052;
18:42:37.774,-1.06152,0.04932,-0.03076;
18:42:37.784,-1.11304,0.08911,-0.03442;
18:42:37.794,-1.14868,0.14624,-0.03198;
18:42:37.804,-1.16455,0.13525,-0.00317;
18:42:37.814,-1.17578,0.09937,-0.00513;
18:42:37.824,-1.14697,0.06885,-0.01392;
18:42:37.834,-1.09131,0.04883,-0.01367;
18:42:37.844,-1.05127,-0.00415,-0.00391;
18:42:37.854,-1.03174,-0.06567,0.01270;
18:42:37.864,-0.99658,-0.11353,0.03516;
18:42:37.874,-0.95557,-0.17041,0.07031;
18:42:37.884,-0.92529,-0.22119,0.10449;
18:42:37.894,-0.93213,-0.28906,0.11279;
18:42:37.904,-0.92920,-0.26758,0.15234;
18:42:37.914,-0.92212,-0.20435,0.13208;
18:42:37.924,-0.92358,-0.20215,0.03784;
18:42:37.934,-0.91138,-0.21143,0.05640;
18:42:37.944,-0.93408,-0.12622,0.13965;
18:42:37.954,-0.99829,-0.03931,0.12402;
18:42:37.964,-1.00708,-0.04614,0.09082;
18:42:37.974,-0.97876,-0.08521,0.11108;
18:42:37.984,-0.98169,-0.09106,0.14185;
18:42:37.994,-1.01172,-0.07593,0.16724;
18:42:38.004,-1.04224,-0.10034,0.17969;
18:42:38.014,-1.05640,-0.14087,0.19116;
18:42:38.024,-1.06128,-0.15308,0.21777;
18:42:38.034,-1.05615,-0.15137,0.24927;
18:42:38.044,-1.04761,-0.15649,0.26782;
18:42:38.054,-1.03931,-0.16040,0.27441;
18:42:38.064,-1.02686,-0.15088,0.27002;
18:42:38.074,-1.01758,-0.14233,0.26245;
18:42:38.084,-1.01123,-0.13696,0.24243;
18:42:38.094,-1.00781,-0.11670,0.20874;
18:42:38.104,-0.97314,-0.05908,0.13794;
18:42:38.114,-0.93652,-0.02832,0.09985;
18:42:38.124,-0.89624,-0.06958,0.06250;
18:42:38.134,-0.84985,-0.06494,0.04517;
18:42:38.144,-0.84644,-0.08374,0.03564;
18:42:38.154,-0.87036,-0.12622,0.02808;
18:42:38.164,-0.88306,-0.17480,0.02051;
18:42:38.174,-0.86182,-0.21460,0.01782;
18:42:38.184,-0.81738,-0.23096,0.01123;
18:42:38.194,-0.77393,-0.19360,0.01245;
18:42:38.204,-0.76123,-0.14136,0.02808;
18:42:38.214,-0.74268,-0.15015,0.11011;
18:42:38.224,-0.76758,-0.14844,0.02954;
18:42:38.234,-0.66675,0.14990,-0.18970;
18:42:38.244,-0.52100,0.53516,-0.20020;
18:42:38.254,-0.82446,0.65308,-0.43066;
18:42:38.264,-1.53320,-0.25146,-0.68384;
18:42:38.274,-1.08008,0.92603,-0.89063;
18:42:38.284,-1.21362,0.74683,-1.23486;
18:42:38.294,-1.23462,0.20801,-0.89111;
18:42:38.304,-1.15234,0.27271,-0.54761;
18:42:38.314,-1.20581,0.35376,-0.05176;
18:42:38.324,-1.27808,0.10352,0.25488;
18:42:38.334,-1.23779,-0.11914,0.49341;
18:42:38.344,-1.25415,-0.16064,0.56934;
18:42:38.354,-1.22949,-0.12646,0.51563;
18:42:38.364,-1.18970,-0.06421,0.38989;
18:42:38.374,-1.13672,-0.00879,0.23950;
18:42:38.384,-1.08740,0.03711,0.14185;
18:42:38.394,-1.04565,0.09668,0.12549;
18:42:38.404,-1.01416,0.07715,0.14429;
18:42:38.414,-1.05347,-0.01416,0.08032;
18:42:38.424,-1.06421,-0.00635,0.02319;
18:42:38.434,-1.04883,-0.01147,-0.04932;
18:42:38.444,-1.02051,-0.00635,-0.10449;
18:42:38.454,-0.99072,0.00903,-0.14575;
18:42:38.464,-0.96289,0.01001,-0.14648;
18:42:38.474,-0.95288,-0.00562,-0.14404;
18:42:38.484,-0.96387,-0.02319,-0.13989;
18:42:38.494,-0.97827,-0.03613,-0.10791;
18:42:38.504,-1.00073,-0.03296,-0.09351;
18:42:38.514,-1.01489,-0.01343,-0.08740;
18:42:38.524,-1.01929,-0.01538,-0.08765;
18:42:38.534,-1.01636,-0.02197,-0.09570;
18:42:38.544,-1.00073,-0.01465,-0.10059;
18:42:38.554,-0.99023,-0.02197,-0.11890;
18:42:38.564,-0.99219,0.01025,-0.14453;
18:42:38.574,-1.01758,0.05835,-0.14111;
18:42:38.584,-1.02148,0.11548,-0.10010;
18:42:38.594,-1.01904,0.13379,-0.07275;
18:42:38.604,-1.01514,0.13184,-0.08740;
18:42:38.614,-1.01904,0.13428,-0.10107;
18:42:38.624,-1.02319,0.15234,-0.09692;
18:42:38.634,-1.03955,0.16748,-0.09668;
18:42:38.644,-1.04224,0.17041,-0.09863;
18:42:38.654,-1.02368,0.13696,-0.04004;
18:42:38.664,-1.01904,0.09180,-0.02271;
18:42:38.674,-1.01465,0.10400,-0.02856;
18:42:38.684,-1.04395,0.18604,-0.01318;
18:42:38.694,-1.15039,0.31689,-0.00220;
18:42:38.704,-1.26904,0.32617,0.02734;
18:42:38.714,-1.37622,0.27710,0.13306;
18:42:38.724,-1.48706,0.31445,0.26172;
18:42:38.734,-1.55493,0.34399,0.30444;
18:42:38.744,-1.64624,0.34863,0.41357;
18:42:38.754,-1.77417,0.39355,0.50952;
18:42:38.764,-1.81909,0.45703,0.53809;
18:42:38.774,-1.76904,0.47632,0.59912;
18:42:38.784,-1.69678,0.50342,0.55859;
18:42:38.794,-1.53906,0.48218,0.39136;
18:42:38.804,-1.24292,0.26074,0.18555;
18:42:38.814,-0.91357,-0.15820,0.08398;
18:42:38.824,-0.70581,-0.46387,0.14893;
18:42:38.834,-0.59595,-0.67407,0.29224;
18:42:38.844,-0.54956,-0.70337,0.36230;
18:42:38.854,-0.55200,-0.73486,0.14990;
18:42:38.864,-0.43799,-1.08154,0.07104;
18:42:38.874,-0.42285,0.88599,0.11719;
18:42:38.884,0.35352,1.23242,0.69263;
18:42:38.894,-0.45703,0.50781,0.02686;
18:42:38.904,-0.53613,0.25049,0.37402;
18:42:38.914,-0.45898,0.28564,0.60425;
18:42:38.924,-0.44482,0.34521,0.60791;
18:42:38.934,-0.62378,0.31006,0.45752;
18:42:38.944,-0.79004,0.21118,0.43066;
18:42:38.954,-0.89795,0.15234,0.40649;
18:42:38.964,-0.98218,0.14136,0.36255;
18:42:38.974,-1.09497,0.14429,0.28369;
18:42:38.984,-1.35254,-0.05933,0.12720;
18:42:38.994,-1.37646,-0.10547,0.09814;
18:42:39.004,-1.36719,-0.11670,0.06567;
18:42:39.014,-1.33960,-0.10376,0.03589;
18:42:39.024,-1.31250,-0.10132,0.03394;
18:42:39.034,-1.30518,-0.11572,0.02686;
18:42:39.044,-1.34473,-0.15015,-0.03369;
18:42:39.054,-1.41138,-0.25293,-0.18774;
18:42:39.064,-1.41089,-0.41968,-0.39868;
18:42:39.074,-1.33203,-0.52905,-0.52661;
18:42:39.084,-1.22705,-1.11401,-0.24829;
18:42:39.094,-1.15283,-1.24951,-0.03662;
18:42:39.104,-1.08374,1.91406,-0.27612;
18:42:39.114,-1.35303,1.52539,-0.59521;
18:42:39.124,-1.66162,0.08887,-0.41357;
18:42:39.134,-1.75928,-0.54028,-0.02563;
18:42:39.144,-1.51050,-0.30859,0.38745;
18:42:39.154,-1.23267,0.03247,0.42700;
18:42:39.164,-1.25513,0.08472,0.17993;
18:42:39.174,-1.22974,0.12500,0.12476;
18:42:39.184,-1.04858,0.24438,-0.02075;
18:42:39.194,-0.96265,0.26050,-0.29395;
18:42:39.204,-0.85791,0.30518,-0.23608;
18:42:39.214,-0.86938,0.26538,-0.16797;
18:42:39.224,-0.94800,0.15332,-0.10449;
18:42:39.234,-0.98535,0.09521,-0.06372;
18:42:39.244,-1.00635,0.13281,-0.05420;
18:42:39.254,-1.02832,0.12891,-0.06421;
18:42:39.264,-1.02100,0.14575,-0.02686;
18:42:39.274,-1.01440,0.21875,-0.04419;
18:42:39.284,-1.00830,0.27832,-0.09521;
18:42:39.294,-0.97632,0.28247,-0.11401;
18:42:39.304,-0.98389,0.25830,-0.12793;
18:42:39.314,-0.99121,0.24219,-0.12280;
18:42:39.324,-0.99243,0.20654,-0.09937;
18:42:39.334,-1.01514,0.14893,-0.07080;
18:42:39.344,-1.00781,0.12817,-0.06055;
18:42:39.354,-0.99243,0.11426,-0.06763;
18:42:39.364,-0.98608,0.10010,-0.08008;
18:42:39.374,-0.97461,0.10742,-0.10083;
18:42:39.384,-0.96265,0.12402,-0.11353;
18:42:39.394,-0.97290,0.13647,-0.11670;
18:42:39.404,-0.98779,0.14673,-0.10889;
18:42:39.414,-0.99731,0.15601,-0.09814;
18:42:39.424,-0.98804,0.17114,-0.10132;
18:42:39.434,-0.98218,0.17212,-0.10181;
18:42:39.444,-0.98145,0.15186,-0.09399;
18:42:39.454,-0.98218,0.13892,-0.10156;
18:42:39.464,-0.98193,0.12354,-0.11279;
18:42:39.474,-0.98267,0.10962,-0.11133;
18:42:39.484,-0.99121,0.10229,-0.10815;
18:42:39.494,-0.99854,0.10352,-0.10669;
18:42:39.504,-1.00977,0.11914,-0.11255;
18:42:39.514,-1.01538,0.12329,-0.11108;
18:42:39.524,-1.02197,0.09985,-0.10181;
18:42:39.534,-1.02515,0.06567,-0.10034;
18:42:39.544,-1.02539,0.03906,-0.10449;
18:42:39.554,-1.02319,0.03369,-0.10791;
18:42:39.564,-1.01733,0.03784,-0.10645;
18:42:39.574,-1.01831,0.04614,-0.10767;
18:42:39.584,-1.02954,0.05151,-0.11426;
18:42:39.594,-1.03979,0.06152,-0.11084;
18:42:39.604,-1.03711,0.05518,-0.10571;
18:42:39.614,-1.03320,0.03540,-0.10864;
18:42:39.624,-1.03418,0.02661,-0.11377;
18:42:39.634,-1.03833,0.02466,-0.11597;
18:42:39.644,-1.04346,0.02417,-0.12036;
18:42:39.654,-1.03540,-0.02930,-0.10889;
18:42:39.664,-1.08081,-0.04053,-0.04517;
18:42:39.674,-1.13086,-0.04443,-0.03149;
18:42:39.684,-1.14697,-0.05786,-0.00928;
18:42:39.694,-1.15234,-0.07324,0.00684;
18:42:39.704,-1.16235,-0.05957,0.01538;
18:42:39.714,-1.18115,-0.03320,0.01245;
18:42:39.724,-1.21826,-0.00610,0.01367;
18:42:39.734,-1.26465,0.03003,-0.01807;
18:42:39.744,-1.33057,0.11011,-0.06958;
18:42:39.754,-1.42554,0.20386,-0.08276;
18:42:39.764,-1.52979,0.27100,-0.05908;
18:42:39.774,-1.64966,0.35571,-0.02026;
18:42:39.784,-1.79541,0.46289,0.02856;
18:42:39.794,-1.91846,0.62451,0.11450;
18:42:39.804,-2.02710,0.86719,0.15747;
18:42:39.814,-2.16309,1.05225,0.08618;
18:42:39.824,-2.19116,0.95386,-0.02954;
18:42:39.834,-1.96973,0.43823,-0.15527;
18:42:39.844,-1.61670,-0.20947,-0.22827;
18:42:39.854,-1.47656,-0.43994,-0.38477;
18:42:39.864,-1.48730,-0.29272,-0.55371;
18:42:39.874,-1.34985,-0.23950,-0.57715;
18:42:39.884,-1.09497,-0.58716,-0.35620;
18:42:39.894,-0.78369,-0.91553,-0.27100;
18:42:39.904,-0.67163,-1.14722,-0.10815;
18:42:39.914,-0.62085,-0.32471,0.10107;
18:42:39.924,-0.49536,0.96167,-0.24683;
18:42:39.934,0.20117,1.16064,-0.09888;
18:42:39.944,-0.11133,0.34937,-0.00757;
18:42:39.954,-0.29321,0.01978,0.02710;
18:42:39.964,-0.31763,0.05957,-0.00342;
18:42:39.974,-0.34448,0.27832,-0.12573;
18:42:39.984,-0.39648,0.38672,-0.12183;
18:42:39.994,-0.47266,0.34888,-0.04858;
18:42:40.004,-0.54297,0.26563,0.00879;
18:42:40.014,-0.62109,0.21753,0.01929;
18:42:40.024,-0.70776,0.19092,-0.00220;
18:42:40.034,-0.79224,0.12842,-0.01978;
18:42:40.044,-0.87598,0.05005,0.01489;
18:42:40.054,-0.96191,-0.00879,0.08398;
18:42:40.064,-1.02832,-0.05908,0.17334;
18:42:40.074,-1.07495,-0.11060,0.24292;
18:42:40.084,-1.24683,-0.21558,0.31299;
18:42:40.094,-1.29712,-0.24438,0.33423;
18:42:40.104,-1.35718,-0.30005,0.37915;
18:42:40.114,-1.42358,-0.32153,0.43945;
18:42:40.124,-1.48706,-0.31299,0.46045;
18:42:40.134,-1.55469,-0.33765,0.38452;
18:42:40.144,-1.63501,-0.39063,0.26855;
18:42:40.154,-1.74487,-0.44629,0.18677;
18:42:40.164,-1.85669,-0.45557,0.11914;
18:42:40.174,-1.95190,-0.48242,0.01758;
18:42:40.184,-2.00024,-0.88599,-0.58325;
18:42:40.194,-1.74341,-1.29688,-0.36914;
18:42:40.204,-1.24756,-1.97729,0.11646;
18:42:40.214,-1.02539,-1.92261,-0.20630;
18:42:40.224,-1.20215,-1.58960,-0.31738;
18:42:40.234,-1.36572,-1.09863,-0.03320;
18:42:40.244,-1.04907,-0.32715,0.35156;
18:42:40.254,-0.69873,0.82349,0.40015;
18:42:40.264,-0.85303,1.11230,0.36255;
18:42:40.274,-1.31348,0.71387,0.25293;
18:42:40.284,-1.77100,0.42212,-0.02783;
18:42:40.294,-2.15601,-0.03711,-0.08813;
18:42:40.304,-2.28564,-0.57397,0.15820;
18:42:40.314,-1.68286,-0.31982,0.66235;
18:42:40.324,-0.97119,0.31567,0.35205;
18:42:40.334,-0.68799,0.43481,-0.11719;
18:42:40.344,-0.79980,0.19287,-0.04858;
18:42:40.354,-0.97729,-0.20044,-0.21533;
18:42:40.364,-0.88940,-0.16968,-0.12964;
18:42:40.374,-0.94385,-0.06274,-0.06885;
18:42:40.384,-0.98413,-0.02954,-0.10767;
18:42:40.394,-0.99097,-0.00879,-0.00806;
18:42:40.404,-1.06323,0.02075,0.01318;
18:42:40.414,-1.03784,0.09839,-0.02539;
18:42:40.424,-1.01294,0.13550,-0.06738;
18:42:40.434,-1.02393,0.13940,-0.05420;
18:42:40.444,-1.03613,0.13843,-0.08105;
18:42:40.454,-1.02734,0.16406,-0.11255;
18:42:40.464,-1.01489,0.17065,-0.10425;
18:42:40.474,-1.02051,0.13379,-0.08496;
18:42:40.484,-1.01196,0.10864,-0.08081;
18:42:40.494,-0.99927,0.09912,-0.08154;
18:42:40.504,-1.00366,0.08716,-0.07739;
18:42:40.514,-0.99487,0.06201,-0.08618;
18:42:40.524,-0.97290,0.04053,-0.10352;
18:42:40.534,-0.96313,0.03711,-0.12573;
18:42:40.544,-0.94971,0.04980,-0.14331;
18:42:40.554,-0.94336,0.06689,-0.13770;
18:42:40.564,-0.95361,0.04004,-0.09741;
18:42:40.574,-0.96655,0.03198,-0.08887;
18:42:40.584,-0.97485,0.02368,-0.08594;
18:42:40.594,-0.97388,0.01587,-0.07715;
18:42:40.604,-0.97485,0.01465,-0.08691;
18:42:40.614,-0.97510,0.02466,-0.09741;
18:42:40.624,-0.98120,0.04590,-0.10913;
18:42:40.634,-0.99512,0.06177,-0.09595;
18:42:40.644,-1.00195,0.06250,-0.08374;
18:42:40.654,-1.00537,0.08057,-0.07520;
18:42:40.664,-1.02612,0.09058,-0.06543;
18:42:40.674,-1.02661,0.11133,-0.07178;
18:42:40.684,-1.03198,0.13721,-0.07251;
18:42:40.694,-1.03589,0.13989,-0.07251;
18:42:40.704,-1.02563,0.12427,-0.07886;
18:42:40.714,-1.03125,0.11182,-0.08350;
18:42:40.724,-1.04224,0.11401,-0.07983;
18:42:40.734,-1.06104,0.10571,-0.07813;
18:42:40.744,-1.07666,0.10034,-0.05957;
18:42:40.754,-1.10376,0.06348,-0.05005;
18:42:40.764,-1.17725,0.08398,-0.02441;
18:42:40.774,-1.18677,0.12354,-0.01782;
18:42:40.784,-1.21582,0.11060,-0.01660;
18:42:40.794,-1.25586,0.13062,-0.02612;
18:42:40.804,-1.33008,0.16333,-0.02954;
18:42:40.814,-1.43921,0.20288,-0.01685;
18:42:40.824,-1.57251,0.28369,0.01538;
18:42:40.834,-1.74731,0.40625,0.05371;
18:42:40.844,-1.91626,0.53564,0.13306;
18:42:40.854,-2.00610,0.57910,0.21558;
18:42:40.864,-1.97241,0.72803,0.36914;
18:42:40.874,-1.87646,0.92529,0.50195;
18:42:40.884,-1.75854,0.97510,0.43286;
18:42:40.894,-1.54639,0.53394,0.08325;
18:42:40.904,-1.22437,-0.37646,-0.26099;
18:42:40.914,-1.01929,-0.94214,-0.35034;
18:42:40.924,-0.90454,-0.95825,-0.34644;
18:42:40.934,-0.73193,-0.82104,-0.16040;
18:42:40.944,-0.57837,-0.75586,0.09790;
18:42:40.954,-0.51782,-0.83008,0.19458;
18:42:40.964,-0.49292,-0.58521,0.37280;
18:42:40.974,-0.58081,0.23584,0.17310;
18:42:40.984,-0.35205,0.94995,-0.25562;
18:42:40.994,0.05127,0.92480,-0.32520;
18:42:41.004,0.14233,0.62500,-0.16553;
18:42:41.014,0.07007,0.39233,0.00684;
18:42:41.024,-0.05762,0.24292,0.05103;
18:42:41.034,-0.12988,0.22046,0.03589;
18:42:41.044,-0.17554,0.18945,-0.06299;
18:42:41.054,-0.18237,0.20703,-0.07837;
18:42:41.064,-0.22852,0.20630,-0.03394;
18:42:41.074,-0.31470,0.20996,-0.00659;
18:42:41.084,-0.41064,0.20679,-0.01587;
18:42:41.094,-0.48145,0.17017,-0.02417;
18:42:41.104,-0.52466,0.07861,-0.00659;
18:42:41.114,-0.59375,-0.04858,0.03735;
18:42:41.124,-0.69189,-0.18506,0.11499;
18:42:41.134,-0.80688,-0.25146,0.15869;
18:42:41.144,-0.95020,-0.30078,0.16089;
18:42:41.154,-1.03589,-0.35425,0.15356;
18:42:41.164,-1.31299,-0.40234,0.09277;
18:42:41.174,-1.55273,-0.77051,0.05566;
18:42:41.184,-1.86206,-1.12378,-0.00684;
18:42:41.194,-2.28516,-1.71289,-0.31177;
18:42:41.204,-2.49097,-2.29663,-0.46875;
18:42:41.214,-2.39697,-2.56079,-0.49414;
18:42:41.224,-2.39478,-2.65137,-0.86816;
18:42:41.234,-1.99927,-1.38257,-1.64038;
18:42:41.244,-0.90381,1.29834,-2.63623;
18:42:41.254,-0.26050,2.92822,-2.76099;
18:42:41.264,-0.93140,2.08398,-1.83545;
18:42:41.274,-1.16113,0.51831,-0.11230;
18:42:41.284,-1.13306,-0.19287,0.58154;
18:42:41.294,-1.37158,-0.21143,0.71948;
18:42:41.304,-1.11304,-0.37036,0.60205;
18:42:41.314,-0.85522,-0.00073,0.09546;
18:42:41.324,-0.92578,0.18921,-0.10498;
18:42:41.334,-0.90088,0.21973,-0.21924;
18:42:41.344,-0.87549,0.13062,-0.19702;
18:42:41.354,-0.88867,0.02637,-0.10693;
18:42:41.364,-0.94946,-0.08984,0.03271;
18:42:41.374,-0.99097,-0.13306,0.15576;
18:42:41.384,-1.01855,-0.13135,0.21143;
18:42:41.394,-1.04956,-0.12280,0.20508;
18:42:41.404,-1.06958,0.03833,0.09790;
18:42:41.414,-1.07642,0.13159,0.04419;
18:42:41.424,-1.04761,0.18311,0.00488;
18:42:41.434,-1.00854,0.19409,-0.01929;
18:42:41.444,-0.99268,0.22168,-0.04590;
18:42:41.454,-0.99121,0.23560,-0.04126;
18:42:41.464,-1.00366,0.19678,-0.02417;
18:42:41.474,-1.01196,0.14502,-0.03784;
18:42:41.484,-1.01025,0.12354,-0.06372;
18:42:41.494,-1.01685,0.09546,-0.05420;
18:42:41.504,-1.00952,0.05957,-0.01953;
18:42:41.514,-1.01099,0.03198,-0.00171;
18:42:41.524,-1.01172,0.02466,-0.00391;
18:42:41.534,-1.00879,0.02295,-0.00391;
18:42:41.544,-1.01196,0.01733,-0.02466;
18:42:41.554,-1.00122,0.02686,-0.03784;
18:42:41.564,-0.99365,0.03052,-0.02124;
18:42:41.574,-1.00171,0.02686,-0.02051;
18:42:41.584,-1.00195,0.04272,-0.04883;
18:42:41.594,-0.99951,0.05420,-0.05762;
18:42:41.604,-0.99951,0.05054,-0.05566;
18:42:41.614,-0.99780,0.05176,-0.05933;
18:42:41.624,-1.00293,0.06201,-0.05640;
18:42:41.634,-1.00757,0.06812,-0.06494;
18:42:41.644,-1.00952,0.07251,-0.05029;
18:42:41.654,-1.01489,0.05737,-0.04541;
18:42:41.664,-1.01392,0.04736,-0.04956;
18:42:41.674,-1.01074,0.05200,-0.05933;
18:42:41.684,-1.00732,0.05981,-0.06934;
18:42:41.694,-1.00781,0.05347,-0.04956;
18:42:41.704,-1.01221,0.03760,-0.04541;
18:42:41.714,-1.00659,0.03345,-0.04883;
18:42:41.724,-1.00244,0.03101,-0.04224;
18:42:41.734,-1.00024,0.02612,-0.04346;
18:42:41.744,-0.99829,0.02026,-0.04736;
18:42:41.754,-0.99585,0.01782,-0.05542;
18:42:41.764,-0.99097,0.02441,-0.05273;
18:42:41.774,-0.99463,0.03101,-0.05225;
18:42:41.784,-1.00049,0.03467,-0.06128;
18:42:41.794,-0.99927,0.03320,-0.05469;
18:42:41.804,-0.99780,0.03125,-0.04883;
18:42:41.814,-1.00122,0.02539,-0.05127;
18:42:41.824,-0.99683,0.01929,-0.05249;
18:42:41.834,-0.99194,0.03003,-0.06128;
18:42:41.844,-1.01270,0.03296,-0.07031;
18:42:41.854,-1.01367,0.01123,-0.03638;
18:42:41.864,-1.01050,0.00708,-0.02979;
18:42:41.874,-1.00830,0.00293,-0.03369;
18:42:41.884,-1.00171,0.00366,-0.04443;
18:42:41.894,-0.99707,0.00122,-0.05127;
18:42:41.904,-0.99463,0.00830,-0.05444;
18:42:41.914,-0.99658,0.01392,-0.05591;
18:42:41.924,-1.00049,0.02075,-0.05029;
18:42:41.934,-1.00342,0.01880,-0.04053;
18:42:41.944,-1.00488,0.01147,-0.03149;
18:42:41.954,-1.00684,0.01196,-0.02661;
18:42:41.964,-1.00659,0.00244,-0.02441;
18:42:41.974,-1.00391,-0.00171,-0.02393;
18:42:41.984,-1.00195,0.00073,-0.02026;
18:42:41.994,-0.99878,-0.00024,-0.01807;
18:42:42.004,-0.99854,0.00024,-0.01538;
18:42:42.014,-0.99561,0.00049,-0.01123;
18:42:42.024,-0.99536,0.00146,-0.00415;
18:42:42.034,-0.99854,0.00293,0.00073;
18:42:42.044,-1.00220,-0.00024,0.00244;
18:42:42.054,-1.00854,-0.00293,0.00952;
18:42:42.064,-1.00610,-0.00269,0.00659;
18:42:42.074,-1.00024,-0.00342,0.01099;
18:42:42.084,-0.99756,-0.00537,0.01611;
18:42:42.094,-0.99585,-0.00439,0.01489;
18:42:42.104,-0.99561,-0.00122,0.02197;
18:42:42.114,-0.99585,-0.00317,0.02759;
18:42:42.124,-0.99707,-0.00586,0.02954;
18:42:42.134,-0.99805,-0.00610,0.03442;
18:42:42.144,-0.99731,-0.00122,0.04297;
18:42:42.154,-0.99634,0.00537,0.05054;
18:42:42.164,-0.99829,0.00513,0.04810;
18:42:42.174,-1.00415,0.00903,0.05371;
18:42:42.184,-1.00854,0.01538,0.06079;
18:42:42.194,-1.00928,0.01587,0.06421;
18:42:42.204,-1.00415,0.01782,0.06958;
18:42:42.214,-0.99951,0.02173,0.06445;
18:42:42.224,-1.00439,0.02637,0.07178;
18:42:42.234,-1.00977,0.02588,0.07251;
18:42:42.244,-1.01245,0.01709,0.08081;
18:42:42.254,-1.01123,0.01147,0.09619;
18:42:42.264,-1.01074,0.01807,0.09839;
18:42:42.274,-1.01709,0.03149,0.10205;
18:42:42.284,-1.02295,0.03345,0.10718;
18:42:42.294,-1.02002,0.02783,0.11475;
18:42:42.304,-1.01660,0.02344,0.12305;
18:42:42.314,-1.01611,0.01660,0.12695;
18:42:42.324,-1.01514,0.01636,0.12427;
18:42:42.334,-1.01758,0.01465,0.12622;
18:42:42.344,-1.02124,0.01001,0.12695;
18:42:42.354,-1.02661,0.01196,0.13794;
18:42:42.364,-1.03418,0.02026,0.15063;
18:42:42.374,-1.07251,0.05737,0.16479;
18:42:42.384,-1.07544,0.05249,0.17871;
18:42:42.394,-1.05347,0.03174,0.22266;
18:42:42.404,-1.05859,0.02197,0.21606;
18:42:42.414,-1.05908,0.02832,0.20020;
18:42:42.424,-1.05762,0.02930,0.20166;
18:42:42.434,-1.05933,0.00122,0.19116;
18:42:42.444,-1.05786,-0.00659,0.21216;
18:42:42.454,-1.06567,-0.01245,0.22314;
18:42:42.464,-1.07446,-0.01318,0.21802;
18:42:42.474,-1.09253,-0.02905,0.21533;
18:42:42.484,-1.07568,-0.10303,0.20532;
18:42:42.494,-1.05151,-0.11914,0.19971;
18:42:42.504,-1.05371,-0.16089,0.21118;
18:42:42.514,-1.05859,-0.20581,0.21094;
18:42:42.524,-1.03638,-0.24048,0.20483;
18:42:42.534,-1.01563,-0.30298,0.18921;
18:42:42.544,-0.98975,-0.36157,0.22559;
18:42:42.554,-0.97900,-0.45728,0.27905;
18:42:42.564,-1.04175,-0.84448,0.48730;
18:42:42.574,-1.22388,-1.37036,0.70435;
18:42:42.584,-1.31128,-1.14038,0.50171;
18:42:42.594,-1.11914,-0.51025,0.24951;
18:42:42.604,-0.87256,-0.01709,0.13281;
18:42:42.614,-0.78174,0.32056,0.10107;
18:42:42.624,-0.82813,0.35840,0.04712;
18:42:42.634,-0.84546,0.35669,-0.07227;
18:42:42.644,-0.77759,0.31763,-0.15698;
18:42:42.654,-0.70483,0.30298,-0.22778;
18:42:42.664,-0.70581,0.34277,-0.22119;
18:42:42.674,-0.76270,0.36841,-0.20410;
18:42:42.684,-0.77319,0.31494,-0.20752;
18:42:42.694,-0.73682,0.23730,-0.19434;
18:42:42.704,-0.72656,0.15698,-0.14038;
18:42:42.714,-0.75854,0.07617,-0.09253;
18:42:42.724,-0.78735,-0.00610,-0.06274;
18:42:42.734,-0.79980,-0.09521,-0.02783;
18:42:42.744,-0.82568,-0.15527,0.01758;
18:42:42.754,-0.86597,-0.21021,0.06348;
18:42:42.764,-0.88892,-0.26636,0.10742;
18:42:42.774,-0.91333,-0.30542,0.14917;
18:42:42.784,-0.93652,-0.38257,0.19556;
18:42:42.794,-0.97192,-0.39478,0.18921;
18:42:42.804,-0.99146,-0.32104,0.15210;
18:42:42.814,-1.00537,-0.27637,0.11792;
18:42:42.824,-0.99634,-0.24390,0.08447;
18:42:42.834,-0.97144,-0.20776,0.05322;
18:42:42.844,-0.95996,-0.14526,0.03125;
18:42:42.854,-0.99292,-0.03174,-0.04614;
18:42:42.864,-1.00757,-0.00488,-0.08716;
18:42:42.874,-1.02588,0.01050,-0.10840;
18:42:42.884,-1.02441,0.02588,-0.10474;
18:42:42.894,-1.03247,0.05811,-0.10962;
18:42:42.904,-1.06348,0.07202,-0.12915;
18:42:42.914,-1.08398,0.08008,-0.13818;
18:42:42.924,-1.10474,0.10034,-0.15259;
18:42:42.934,-1.12671,0.11450,-0.16992;
18:42:42.944,-1.14600,0.11963,-0.17578;
18:42:42.954,-1.16187,0.12158,-0.16821;
18:42:42.964,-1.18311,0.09717,-0.17114;
18:42:42.974,-1.20459,0.05249,-0.17554;
18:42:42.984,-1.22192,0.02710,-0.16138;
18:42:42.994,-1.25220,0.00049,-0.15332;
18:42:43.004,-1.28491,-0.10815,-0.15796;
18:42:43.014,-1.30713,-0.29321,-0.13159;
18:42:43.024,-1.30688,-0.44409,-0.09399;
18:42:43.034,-1.30542,-0.48828,-0.07153;
18:42:43.044,-1.27637,-0.47485,-0.02881;
18:42:43.054,-1.23511,-0.49805,0.02881;
18:42:43.064,-1.20679,-0.57861,0.08179;
18:42:43.074,-1.16626,-0.68530,0.12134;
18:42:43.084,-1.12500,-0.80518,0.12939;
18:42:43.094,-1.08984,-0.91504,0.12207;
18:42:43.104,-1.09106,-0.91650,0.11914;
18:42:43.114,-1.12109,-0.82422,0.11670;
18:42:43.124,-1.08398,-0.77588,0.22607;
18:42:43.134,-1.04517,-0.39111,0.55835;
18:42:43.144,-1.04297,0.79736,0.38892;
18:42:43.154,-0.87402,1.72852,0.06665;
18:42:43.164,-0.87549,1.12378,0.19238;
18:42:43.174,-1.12549,0.15845,0.31763;
18:42:43.184,-1.24365,-0.03174,0.12134;
18:42:43.194,-1.11182,0.22925,-0.07031;
18:42:43.204,-1.00732,0.46729,-0.04932;
18:42:43.214,-1.10254,0.39844,-0.18262;
18:42:43.224,-1.11914,0.19727,-0.29443;
18:42:43.234,-1.03418,0.11914,-0.23975;
18:42:43.244,-1.05273,0.13940,-0.22827;
18:42:43.254,-1.05835,0.22852,-0.17139;
18:42:43.264,-0.98584,0.33838,0.00464;
18:42:43.274,-0.99561,0.29443,0.07813;
18:42:43.284,-1.03418,0.15723,0.16333;
18:42:43.294,-1.03833,0.13550,0.19019;
18:42:43.304,-1.01270,0.21973,0.06519;
18:42:43.314,-0.98242,0.25415,-0.00830;
18:42:43.324,-0.96069,0.24927,-0.02759;
18:42:43.334,-0.94165,0.24146,-0.06812;
18:42:43.344,-0.91724,0.26636,-0.08545;
18:42:43.354,-0.96533,0.26514,-0.10352;
18:42:43.364,-0.95850,0.26733,-0.08960;
18:42:43.374,-0.96753,0.26318,-0.05713;
18:42:43.384,-0.99951,0.23901,-0.05396;
18:42:43.394,-1.01025,0.21826,-0.05420;
18:42:43.404,-0.99927,0.25610,-0.09692;
18:42:43.414,-0.97974,0.25024,-0.13672;
18:42:43.424,-1.01245,0.17578,-0.04712;
18:42:43.434,-1.01978,0.14526,-0.03809;
18:42:43.444,-1.02002,0.13965,-0.03613;
18:42:43.454,-1.01343,0.15601,-0.06982;
18:42:43.464,-1.00757,0.15112,-0.08862;
18:42:43.474,-1.00171,0.16113,-0.08960;
18:42:43.484,-0.99829,0.18506,-0.09619;
18:42:43.494,-0.98755,0.18945,-0.08350;
18:42:43.504,-0.98120,0.16650,-0.06250;
18:42:43.514,-0.98511,0.12769,-0.03442;
18:42:43.524,-0.98364,0.10620,-0.02930;
18:42:43.534,-0.97876,0.10791,-0.04639;
18:42:43.544,-0.97534,0.10303,-0.05591;
18:42:43.554,-0.97363,0.08472,-0.06226;
18:42:43.564,-0.97681,0.08545,-0.06787;
18:42:43.574,-0.97949,0.08838,-0.04810;
18:42:43.584,-0.98560,0.07202,-0.02856;
18:42:43.594,-0.99512,0.06030,-0.01758;
18:42:43.604,-1.00317,0.05029,-0.02271;
18:42:43.614,-1.00708,0.05713,-0.04053;
18:42:43.624,-1.00757,0.04272,-0.04810;
18:42:43.634,-1.00708,0.03149,-0.05420;
18:42:43.644,-1.00171,0.05078,-0.05518;
18:42:43.654,-1.00024,0.05371,-0.05054;
18:42:43.664,-1.00488,0.05786,-0.04443;
18:42:43.674,-1.00732,0.05615,-0.04614;
18:42:43.684,-1.00757,0.04810,-0.05103;
18:42:43.694,-1.00879,0.04175,-0.05225;
18:42:43.704,-1.00537,0.03955,-0.05688;
18:42:43.714,-0.99951,0.03784,-0.05005;
18:42:43.724,-0.99976,0.02490,-0.03418;
18:42:43.734,-1.00122,0.02075,-0.03198;
18:42:43.744,-0.99976,0.01758,-0.03906;
18:42:43.754,-1.00171,-0.00708,-0.03760;
18:42:43.764,-1.00830,-0.01318,-0.04150;
18:42:43.774,-1.00439,-0.00757,-0.03906;
18:42:43.784,-1.00635,-0.00928,-0.01294;
18:42:43.794,-1.02173,-0.01709,0.00122;
18:42:43.804,-1.02173,-0.01782,-0.01025;
18:42:43.814,-1.01587,-0.01221,-0.01343;
18:42:43.824,-1.01514,-0.01831,-0.00488;
18:42:43.834,-1.01563,-0.02881,0.00488;
18:42:43.844,-1.02563,-0.02197,-0.00684;
18:42:43.854,-1.03125,-0.01123,-0.00439;
18:42:43.864,-1.03174,-0.01294,0.02563;
18:42:43.874,-1.03882,-0.02612,0.02979;
18:42:43.884,-1.06079,-0.02441,0.00977;
18:42:43.894,-1.06372,-0.00903,-0.04175;
18:42:43.904,-1.05737,-0.01074,-0.03735;
18:42:43.914,-1.13086,-0.03076,0.04370;
18:42:43.924,-1.19580,-0.04395,0.04395;
18:42:43.934,-1.24268,0.00635,0.02148;
18:42:43.944,-1.26611,0.02881,0.06543;
18:42:43.954,-1.33618,-0.00317,0.13330;
18:42:43.964,-1.42920,0.06226,0.06543;
18:42:43.974,-1.39014,0.21924,-0.00903;
18:42:43.984,-1.35278,0.23438,0.02588;
18:42:43.994,-1.30029,0.22119,0.03174;
18:42:44.004,-1.24731,0.22510,0.07642;
18:42:44.014,-1.17944,0.26587,0.14355;
18:42:44.024,-1.13379,0.30859,0.04468;
18:42:44.034,-1.15063,0.28418,-0.17432;
18:42:44.044,-1.19214,0.22729,-0.36353;
18:42:44.054,-1.23975,0.05615,-0.48145;
18:42:44.064,-1.27881,-0.15601,-0.55640;
18:42:44.074,-1.23926,-0.29224,-0.51636;
18:42:44.084,-1.12866,-0.29248,-0.35083;
18:42:44.094,-1.02563,-0.23242,-0.28052;
18:42:44.104,-0.91138,-0.31323,-0.24316;
18:42:44.114,-0.82568,-0.46484,-0.16870;
18:42:44.124,-0.77197,-0.58228,-0.10229;
18:42:44.134,-0.73853,-0.46826,0.11963;
18:42:44.144,-0.83594,-0.35278,0.12305;
18:42:44.154,-0.80737,-0.40234,-0.04980;
18:42:44.164,-0.57178,-0.22827,-0.00098;
18:42:44.174,-0.51636,-0.04858,0.07153;
18:42:44.184,-0.61768,0.06348,0.05493;
18:42:44.194,-0.67456,0.08521,0.00171;
18:42:44.204,-0.66553,-0.05542,-0.01123;
18:42:44.214,-0.66602,-0.14282,0.02002;
18:42:44.224,-0.68091,-0.15894,0.06934;
18:42:44.234,-0.67212,-0.07080,0.11694;
18:42:44.244,-0.66040,0.05005,0.14233;
18:42:44.254,-0.66797,0.13379,0.14429;
18:42:44.264,-0.69019,0.14307,0.15576;
18:42:44.274,-0.70288,0.11304,0.16016;
18:42:44.284,-0.70947,0.10815,0.14673;
18:42:44.294,-0.74341,0.09082,0.12598;
18:42:44.304,-0.85596,0.01880,0.13403;
18:42:44.314,-0.88696,0.00293,0.14819;
18:42:44.324,-0.90210,0.00757,0.17310;
18:42:44.334,-0.92090,-0.00269,0.21069;
18:42:44.344,-0.95264,-0.04028,0.26001;
18:42:44.354,-0.99683,-0.08179,0.30347;
18:42:44.364,-1.03296,-0.12231,0.32397;
18:42:44.374,-1.07520,-0.10791,0.31836;
18:42:44.384,-1.15503,-0.20166,0.17700;
18:42:44.394,-1.18555,-0.13867,0.18433;
18:42:44.404,-1.23926,-0.01660,0.20654;
18:42:44.414,-1.27051,-0.09814,0.13940;
18:42:44.424,-1.26050,-0.19214,0.16968;
18:42:44.434,-1.20313,-0.03955,0.34985;
18:42:44.444,-1.26343,-0.03711,0.27051;
18:42:44.454,-1.23218,-0.19800,0.15845;
18:42:44.464,-1.15015,-0.09326,0.07153;
18:42:44.474,-1.19971,-0.09497,0.09009;
18:42:44.484,-1.20044,-0.08862,0.06714;
18:42:44.494,-1.17041,-0.04761,0.08447;
18:42:44.504,-1.17407,-0.07715,0.05054;
18:42:44.514,-1.17456,-0.13086,-0.00586;
18:42:44.524,-1.17285,-0.15918,-0.07690;
18:42:44.534,-1.19141,-0.17310,-0.15967;
18:42:44.544,-1.20801,-0.19824,-0.20239;
18:42:44.554,-1.20850,-0.27295,-0.20679;
18:42:44.564,-1.19629,-0.41016,-0.18042;
18:42:44.574,-1.14990,-0.57153,-0.12378;
18:42:44.584,-1.10742,-0.71387,-0.07837;
18:42:44.594,-1.09497,-0.78955,-0.06641;
18:42:44.604,-1.10156,-0.79834,-0.07007;
18:42:44.614,-1.13062,-0.81177,-0.06860;
18:42:44.624,-1.22998,-0.73120,-0.06396;
18:42:44.634,-1.15479,-0.71362,0.04590;
18:42:44.644,-0.91968,0.21753,0.20557;
18:42:44.654,-0.99170,1.13379,-0.21704;
18:42:44.664,-1.12720,0.95313,-0.48071;
18:42:44.674,-1.23535,0.58057,-0.12891;
18:42:44.684,-1.42383,0.27173,0.03833;
18:42:44.694,-1.43262,0.15015,0.03760;
18:42:44.704,-1.40015,-0.11475,-0.05444;
18:42:44.714,-1.36597,-0.24976,-0.04126;
18:42:44.724,-1.23364,-0.09644,0.18359;
18:42:44.734,-1.16162,0.16602,0.23804;
18:42:44.744,-1.09229,0.21313,0.11011;
18:42:44.754,-0.98657,0.16284,0.05566;
18:42:44.764,-0.95044,0.23975,-0.01514;
18:42:44.774,-0.94434,0.30322,-0.10498;
18:42:44.784,-0.91943,0.32349,-0.17114;
18:42:44.794,-0.88403,0.27002,-0.18872;
18:42:44.804,-0.91870,0.18213,-0.10010;
18:42:44.814,-0.94043,0.24414,-0.07251;
18:42:44.824,-0.97388,0.27539,-0.05713;
18:42:44.834,-0.99902,0.29883,-0.05151;
18:42:44.844,-1.00122,0.34692,-0.07373;
18:42:44.854,-0.98218,0.33789,-0.11255;
18:42:44.864,-0.96802,0.26392,-0.13159;
18:42:44.874,-0.96802,0.21313,-0.15137;
18:42:44.884,-0.96094,0.21802,-0.15918;
18:42:44.894,-0.96753,0.23657,-0.15723;
18:42:44.904,-0.98364,0.24194,-0.13989;
18:42:44.914,-0.99219,0.23364,-0.12573;
18:42:44.924,-0.98926,0.23340,-0.11548;
18:42:44.934,-0.98584,0.22827,-0.11401;
18:42:44.944,-0.98145,0.21411,-0.12329;
18:42:44.954,-0.97168,0.20190,-0.12402;
18:42:44.964,-0.96582,0.19336,-0.12866;
18:42:44.974,-0.97290,0.20557,-0.13940;
18:42:44.984,-0.96387,0.20728,-0.14111;
18:42:44.994,-0.96313,0.18970,-0.14307;
18:42:45.004,-0.96460,0.17798,-0.15430;
18:42:45.014,-0.94824,0.13647,-0.11255;
18:42:45.024,-0.97607,0.14282,-0.13184;
18:42:45.034,-0.96460,0.11646,-0.14087;
18:42:45.044,-0.96167,0.11401,-0.06909;
18:42:45.054,-1.00269,0.10229,-0.02930;
18:42:45.064,-1.03711,0.11670,-0.03662;
18:42:45.074,-1.02515,0.10645,-0.02466;
18:42:45.084,-1.01050,0.07422,-0.02930;
18:42:45.094,-0.98926,0.06445,-0.05859;
18:42:45.104,-0.97803,0.08667,-0.10010;
18:42:45.114,-0.98682,0.13159,-0.12695;
18:42:45.124,-1.00098,0.13208,-0.14209;
18:42:45.134,-1.00781,0.11011,-0.12012;
18:42:45.144,-1.00171,0.09814,-0.11304;
18:42:45.154,-0.99487,0.09814,-0.13599;
18:42:45.164,-0.97461,0.08496,-0.08813;
18:42:45.174,-1.00562,0.08618,-0.04321;
18:42:45.184,-1.04614,0.12769,-0.04883;
18:42:45.194,-1.05078,0.14380,-0.03638;
18:42:45.204,-1.05688,0.12695,-0.03369;
18:42:45.214,-1.04346,0.12012,-0.04053;
18:42:45.224,-1.02930,0.09302,-0.05542;
18:42:45.234,-1.02319,0.06958,-0.07715;
18:42:45.244,-1.01904,0.07666,-0.08789;
18:42:45.254,-1.02368,0.06885,-0.07959;
18:42:45.264,-1.03003,0.05518,-0.07056;
18:42:45.274,-1.03638,0.05225,-0.05835;
18:42:45.284,-1.05688,0.05884,-0.05249;
18:42:45.294,-1.07690,0.05469,-0.06885;
18:42:45.304,-1.09131,0.09912,-0.02148;
18:42:45.314,-1.13916,0.05615,-0.01904;
18:42:45.324,-1.19482,0.02856,-0.08154;
18:42:45.334,-1.20410,0.06274,-0.09741;
18:42:45.344,-1.21948,0.07544,-0.08716;
18:42:45.354,-1.24634,0.09839,-0.08716;
18:42:45.364,-1.27368,0.12378,-0.08081;
18:42:45.374,-1.29932,0.13379,-0.03198;
18:42:45.384,-1.32861,0.13892,0.03052;
18:42:45.394,-1.34497,0.16284,0.07764;
18:42:45.404,-1.36401,0.21753,0.09253;
18:42:45.414,-1.38745,0.27759,0.08350;
18:42:45.424,-1.40991,0.31616,0.06641;
18:42:45.434,-1.44775,0.34839,0.02148;
18:42:45.444,-1.43896,0.36230,-0.04175;
18:42:45.454,-1.36792,0.30566,-0.04736;
18:42:45.464,-1.29248,0.19336,-0.04810;
18:42:45.474,-1.22144,0.03955,-0.04028;
18:42:45.484,-1.18848,-0.20361,-0.06909;
18:42:45.494,-1.19678,-0.43726,-0.11182;
18:42:45.504,-1.13428,-0.53271,-0.16650;
18:42:45.514,-0.98853,-0.56665,-0.16919;
18:42:45.524,-0.84399,-0.55835,-0.16504;
18:42:45.534,-0.76440,-0.64136,-0.15479;
18:42:45.544,-0.75049,-0.86426,0.03442;
18:42:45.554,-0.75732,-0.98022,0.13184;
18:42:45.564,-0.65405,0.28882,-0.15991;
18:42:45.574,-0.43506,0.32495,0.02710;
18:42:45.584,-0.39917,0.33862,-0.03394;
18:42:45.594,-0.39355,0.10962,-0.05225;
18:42:45.604,-0.41699,0.08057,0.00391;
18:42:45.614,-0.47046,0.10278,0.03271;
18:42:45.624,-0.51196,0.11792,0.03271;
18:42:45.634,-0.52759,0.08496,0.02563;
18:42:45.644,-0.54688,0.03564,0.01050;
18:42:45.654,-0.59009,0.00024,0.01660;
18:42:45.664,-0.64063,-0.00928,0.05054;
18:42:45.674,-0.69116,-0.02246,0.08179;
18:42:45.684,-0.74414,-0.05225,0.07861;
18:42:45.694,-0.77051,-0.07983,0.08594;
18:42:45.704,-0.79346,-0.10596,0.12549;
18:42:45.714,-0.82129,-0.11768,0.16431;
18:42:45.724,-0.86353,-0.12085,0.17920;
18:42:45.734,-0.95752,-0.16943,0.18457;
18:42:45.744,-1.06445,-0.23584,0.20508;
18:42:45.754,-1.32178,-0.25366,0.16333;
18:42:45.764,-1.38794,-0.33325,0.08398;
18:42:45.774,-1.44995,-0.44897,-0.01587;
18:42:45.784,-1.51978,-0.53271,-0.13232;
18:42:45.794,-1.57056,-0.56396,-0.22168;
18:42:45.804,-1.62207,-0.56226,-0.32227;
18:42:45.814,-1.67334,-0.54395,-0.45630;
18:42:45.824,-1.66846,-0.50146,-0.58228;
18:42:45.834,-1.58325,-0.41602,-0.67334;
18:42:45.844,-1.42334,-0.27393,-0.68799;
18:42:45.854,-1.27637,-0.14551,-0.65283;
18:42:45.864,-1.29565,-0.20288,-0.75781;
18:42:45.874,-1.38574,-0.66797,-1.03760;
18:42:45.884,-1.44409,-1.47412,-0.99194;
18:42:45.894,-1.41602,-2.17871,-0.90845;
18:42:45.904,-1.22974,-1.55615,-0.53662;
18:42:45.914,-1.09106,1.13379,-0.18188;
18:42:45.924,-0.94531,2.57080,-0.85986;
18:42:45.934,-0.99292,1.26807,-0.15063;
18:42:45.944,-1.37476,-0.51270,0.91553;
18:42:45.954,-1.70142,-0.86157,0.90942;
18:42:45.964,-1.40845,-0.00806,0.75952;
18:42:45.974,-0.86401,0.36011,0.46313;
18:42:45.984,-0.84814,0.14014,0.47290;
18:42:45.994,-1.07080,-0.05640,0.21362;
18:42:46.004,-1.00537,0.03613,-0.10645;
18:42:46.014,-0.80444,0.11401,-0.20190;
18:42:46.024,-0.81006,0.08984,-0.17090;
18:42:46.034,-0.88037,0.04956,-0.12183;
18:42:46.044,-0.92725,0.06494,-0.06348;
18:42:46.054,-0.97559,0.07202,0.03516;
18:42:46.064,-1.02368,0.04785,0.09961;
18:42:46.074,-1.03857,0.02612,0.11816;
18:42:46.084,-1.03076,0.07837,0.08228;
18:42:46.094,-1.01929,0.17651,0.01685;
18:42:46.104,-1.00366,0.20923,-0.05396;
18:42:46.114,-1.00854,0.23486,-0.04102;
18:42:46.124,-1.01587,0.14868,-0.02026;
18:42:46.134,-1.01050,0.11938,-0.02026;
18:42:46.144,-1.00781,0.09766,-0.01636;
18:42:46.154,-1.00806,0.08984,-0.02075;
18:42:46.164,-1.01001,0.09766,-0.02612;
18:42:46.174,-1.01001,0.11279,-0.05029;
18:42:46.184,-1.00513,0.12549,-0.05615;
18:42:46.194,-1.00049,0.12476,-0.04346;
18:42:46.204,-1.00317,0.11279,-0.04468;
18:42:46.214,-0.99756,0.11304,-0.03760;
18:42:46.224,-1.00098,0.11060,-0.03149;
18:42:46.234,-1.00317,0.09668,-0.03394;
18:42:46.244,-0.99634,0.09009,-0.04102;
18:42:46.254,-0.99023,0.08911,-0.05664;
18:42:46.264,-0.99072,0.07227,-0.04907;
18:42:46.274,-1.00000,0.07764,-0.04272;
18:42:46.284,-1.00708,0.07788,-0.03857;
18:42:46.294,-1.01465,0.07837,-0.03516;
18:42:46.304,-1.01807,0.07202,-0.03027;
18:42:46.314,-1.01782,0.07031,-0.02319;
18:42:46.324,-1.01929,0.07349,-0.02686;
18:42:46.334,-1.01538,0.08521,-0.05005;
18:42:46.344,-1.00879,0.10352,-0.05542;
18:42:46.354,-1.00781,0.10059,-0.06665;
18:42:46.364,-1.00610,0.09668,-0.08374;
18:42:46.374,-0.99976,0.10278,-0.08252;
18:42:46.384,-1.00439,0.09619,-0.07227;
18:42:46.394,-1.01196,0.08423,-0.05859;
18:42:46.404,-1.02197,0.07422,-0.05664;
18:42:46.414,-1.02222,0.07324,-0.05493;
18:42:46.424,-1.01196,0.06128,-0.05444;
18:42:46.434,-1.00903,0.04053,-0.06250;
18:42:46.444,-1.00146,0.02490,-0.08716;
18:42:46.454,-1.00293,0.00610,-0.06519;
18:42:46.464,-1.00244,0.01563,-0.07349;
18:42:46.474,-1.00244,0.02344,-0.07153;
18:42:46.484,-1.00366,0.02466,-0.06519;
18:42:46.494,-0.99976,0.02173,-0.06909;
18:42:46.504,-1.00049,0.03638,-0.08301;
18:42:46.514,-1.00098,0.04736,-0.10645;
18:42:46.524,-1.00024,0.05078,-0.11060;
18:42:46.534,-1.00220,0.04590,-0.10547;
18:42:46.544,-1.00049,0.03174,-0.09155;
18:42:46.554,-1.00269,0.01416,-0.07617;
18:42:46.564,-0.99634,0.00977,-0.07788;
18:42:46.574,-1.00195,0.00830,-0.08105;
18:42:46.584,-1.00488,-0.02148,-0.07690;
18:42:46.594,-1.00146,-0.03052,-0.06592;
18:42:46.604,-0.99780,-0.02344,-0.07544;
18:42:46.614,-1.00391,-0.00610,-0.09473;
18:42:46.624,-1.00488,-0.00024,-0.09888;
18:42:46.634,-1.00293,0.00171,-0.09790;
18:42:46.644,-1.00391,-0.00439,-0.09937;
18:42:46.654,-1.00098,-0.01074,-0.09424;
18:42:46.664,-1.00073,-0.01440,-0.09546;
18:42:46.674,-1.00122,-0.01245,-0.09668;
18:42:46.684,-1.00684,-0.00781,-0.10303;
18:42:46.694,-1.01025,-0.00513,-0.11328;
18:42:46.704,-1.01270,0.00659,-0.11426;
18:42:46.714,-1.01270,0.00806,-0.10278;
18:42:46.724,-1.01367,-0.00122,-0.09351;
18:42:46.734,-1.01611,-0.00757,-0.08521;
18:42:46.744,-1.01514,-0.01807,-0.08447;
18:42:46.754,-1.01099,-0.01685,-0.09082;
18:42:46.764,-1.00879,-0.01660,-0.09302;
18:42:46.774,-1.00366,-0.01855,-0.09668;
18:42:46.784,-0.99731,-0.01489,-0.09961;
18:42:46.794,-0.99390,-0.01709,-0.10645;
18:42:46.804,-0.99194,-0.01465,-0.11304;
18:42:46.814,-0.99243,-0.01465,-0.10693;
18:42:46.824,-0.99487,-0.02100,-0.08667;
18:42:46.834,-0.99951,-0.02832,-0.07886;
18:42:46.844,-0.99683,-0.02637,-0.08325;
18:42:46.854,-0.99707,-0.01563,-0.08301;
18:42:46.864,-1.00366,-0.01221,-0.08154;
18:42:46.874,-1.00977,-0.00464,-0.07617;
18:42:46.884,-1.01758,0.00195,-0.06543;
18:42:46.894,-1.02661,0.00073,-0.04761;
18:42:46.904,-1.04834,-0.01001,-0.06104;
18:42:46.914,-1.05396,-0.00977,-0.06372;
18:42:46.924,-1.06226,-0.01367,-0.05103;
18:42:46.934,-1.07324,-0.01514,-0.05054;
18:42:46.944,-1.10962,0.02368,-0.09766;
18:42:46.954,-1.11768,0.03418,-0.06641;
18:42:46.964,-1.13867,0.00903,-0.05957;
18:42:46.974,-1.13379,0.01147,-0.05933;
18:42:46.984,-1.12671,-0.00244,-0.04199;
18:42:46.994,-1.10962,-0.02979,-0.02417;
18:42:47.004,-1.08423,-0.05005,-0.02490;
18:42:47.014,-1.05566,-0.05713,-0.02661;
18:42:47.024,-1.02979,-0.06616,-0.02954;
18:42:47.034,-1.00488,-0.07593,-0.03711;
18:42:47.044,-0.97021,-0.07983,-0.05469;
18:42:47.054,-0.94604,-0.08008,-0.07324;
18:42:47.064,-0.93872,-0.08618,-0.08569;
18:42:47.074,-0.93701,-0.10254,-0.09326;
18:42:47.084,-0.94458,-0.10742,-0.08984;
18:42:47.094,-0.96216,-0.10571,-0.07910;
18:42:47.104,-0.98779,-0.09595,-0.06738;
18:42:47.114,-1.01733,-0.08521,-0.04346;
18:42:47.124,-1.10083,-0.02734,-0.00073;
18:42:47.134,-1.26270,0.02881,0.04346;
18:42:47.144,-1.33496,0.11475,0.07104;
18:42:47.154,-1.34937,0.13843,0.09570;
18:42:47.164,-1.36133,0.13379,0.07617;
18:42:47.174,-1.36597,0.06934,0.02319;
18:42:47.184,-1.32422,-0.02832,-0.02930;
18:42:47.194,-1.23560,-0.12305,-0.07715;
18:42:47.204,-1.13477,-0.27466,-0.12402;
18:42:47.214,-1.03418,-0.44873,-0.09644;
18:42:47.224,-0.94971,-0.55786,0.00806;
18:42:47.234,-0.91870,-0.60571,-0.01147;
18:42:47.244,-0.97192,-0.74023,-0.01245;
18:42:47.254,-0.87549,-0.77295,0.06372;
18:42:47.264,-0.65112,-0.74023,0.12451;
18:42:47.274,-0.57495,-0.81128,0.17041;
18:42:47.284,-0.62769,-0.78613,0.19263;
18:42:47.294,-0.62256,-0.37988,0.17700;
18:42:47.304,-0.48169,0.17944,0.02124;
18:42:47.314,-0.36035,0.17505,-0.02759;
18:42:47.324,-0.39722,-0.04175,0.06763;
18:42:47.334,-0.44141,-0.04199,0.06177;
18:42:47.344,-0.41724,0.03638,0.01489;
18:42:47.354,-0.40820,0.06787,-0.00757;
18:42:47.364,-0.41504,0.04150,-0.01221;
18:42:47.374,-0.43726,0.02808,-0.00024;
18:42:47.384,-0.45459,0.03003,-0.01147;
18:42:47.394,-0.47437,0.05005,-0.03833;
18:42:47.404,-0.50513,0.06396,-0.05811;
18:42:47.414,-0.55225,0.06519,-0.05762;
18:42:47.424,-0.61060,0.05566,-0.04517;
18:42:47.434,-0.65503,0.02075,-0.03320;
18:42:47.444,-0.68140,-0.04517,-0.03076;
18:42:47.454,-0.69482,-0.10107,-0.02686;
18:42:47.464,-0.70410,-0.10913,-0.02881;
18:42:47.474,-0.72144,-0.07642,-0.04199;
18:42:47.484,-0.77222,-0.10938,-0.04639;
18:42:47.494,-0.86792,-0.24072,-0.03711;
18:42:47.504,-0.96021,-0.38696,-0.00342;
18:42:47.514,-1.05151,-0.48755,0.01172;
18:42:47.524,-1.43311,-0.86694,-0.10107;
18:42:47.534,-1.82446,-1.40259,-0.32202;
18:42:47.544,-1.73364,-1.52588,-0.05518;
18:42:47.554,-2.13477,-1.61816,-0.16895;
18:42:47.564,-2.73389,-2.74316,-0.62183;
18:42:47.574,-1.80249,-1.88110,0.62061;
18:42:47.584,-0.87451,1.50098,0.73706;
18:42:47.594,-0.99268,2.64990,-0.72656;
18:42:47.604,-1.09351,0.53906,-0.29272;
18:42:47.614,-1.17334,-0.86987,0.46191;
18:42:47.624,-1.24658,-0.23511,0.44214;
18:42:47.634,-1.13281,0.27148,0.11084;
18:42:47.644,-0.99194,0.02197,-0.04907;
18:42:47.654,-0.86450,-0.02783,-0.04907;
18:42:47.664,-0.93604,0.11987,-0.22021;
18:42:47.674,-0.92358,0.04810,-0.06787;
18:42:47.684,-0.97974,0.06641,-0.01172;
18:42:47.694,-1.01514,-0.03882,0.06348;
18:42:47.704,-1.01660,-0.04810,0.04443;
18:42:47.714,-1.00952,-0.01709,0.00024;
18:42:47.724,-0.99609,0.00586,-0.04053;
18:42:47.734,-0.98071,0.01392,-0.06543;
18:42:47.744,-0.98096,0.02393,-0.06396;
18:42:47.754,-0.99585,0.02441,-0.05444;
18:42:47.764,-1.01001,0.00781,-0.05420;
18:42:47.774,-1.02026,0.00000,-0.03687;
18:42:47.784,-1.02979,-0.00122,-0.01831;
18:42:47.794,-1.02515,-0.01245,-0.01685;
18:42:47.804,-1.02075,-0.01099,-0.01587;
18:42:47.814,-1.02100,-0.00659,-0.02441;
18:42:47.824,-1.01196,-0.00220,-0.03345;
18:42:47.834,-1.00854,0.00342,-0.03857;
18:42:47.844,-1.00317,0.00146,-0.04150;
18:42:47.854,-0.99854,-0.00586,-0.03320;
18:42:47.864,-0.99780,-0.01294,-0.04077;
18:42:47.874,-0.99243,-0.00879,-0.04761;
18:42:47.884,-0.98755,-0.00977,-0.05176;
18:42:47.894,-0.98462,-0.01123,-0.06177;
18:42:47.904,-0.98218,-0.00757,-0.05981;
18:42:47.914,-0.98755,0.00830,-0.05859;
18:42:47.924,-0.99390,0.01953,-0.06421;
18:42:47.934,-1.00000,0.02563,-0.06177;
18:42:47.944,-1.00586,0.02661,-0.05664;
18:42:47.954,-1.00879,0.02612,-0.04736;
18:42:47.964,-1.01636,0.03345,-0.05029;
18:42:47.974,-1.01880,0.03955,-0.06323;
18:42:47.984,-1.01660,0.04590,-0.06396;
18:42:47.994,-1.01685,0.04395,-0.06372;
18:42:48.004,-1.01514,0.04321,-0.06958;
18:42:48.014,-1.01074,0.04468,-0.07129;
18:42:48.024,-1.01050,0.03491,-0.06714;
18:42:48.034,-1.01074,0.02832,-0.06421;
18:42:48.044,-1.00806,0.03052,-0.07129;
18:42:48.054,-1.00903,0.02686,-0.08203;
18:42:48.064,-1.00781,0.02588,-0.08203;
18:42:48.074,-1.00488,0.01880,-0.07813;
18:42:48.084,-0.99976,0.01343,-0.07422;
18:42:48.094,-0.99731,0.00537,-0.06860;
18:42:48.104,-0.99268,-0.00098,-0.06616;
18:42:48.114,-0.99609,0.00195,-0.07153;
18:42:48.124,-0.99829,-0.00513,-0.07935;
18:42:48.134,-0.99390,-0.01953,-0.07642;
18:42:48.144,-0.99561,-0.02954,-0.08032;
18:42:48.154,-0.99048,-0.02979,-0.09033;
18:42:48.164,-0.98755,-0.02197,-0.09619;
18:42:48.174,-0.98291,-0.01343,-0.10352;
18:42:48.184,-0.99414,0.00220,-0.11743;
18:42:48.194,-1.00220,0.03760,-0.13281;
18:42:48.204,-1.00830,0.06250,-0.14917;
18:42:48.214,-1.01440,0.07861,-0.14966;
18:42:48.224,-1.01099,0.07300,-0.14209;
18:42:48.234,-1.01563,0.05347,-0.14551;
18:42:48.244,-1.02026,0.05273,-0.14355;
18:42:48.254,-1.02808,0.07788,-0.15625;
18:42:48.264,-1.02783,0.03857,-0.16211;
18:42:48.274,-1.02783,0.00098,-0.14502;
18:42:48.284,-1.03394,-0.00879,-0.13550;
18:42:48.294,-1.02759,-0.00977,-0.13989;
18:42:48.304,-1.02002,-0.00293,-0.14038;
18:42:48.314,-1.01050,-0.01294,-0.14526;
18:42:48.324,-1.00562,-0.02710,-0.13428;
18:42:48.334,-1.00659,-0.05591,-0.11841;
18:42:48.344,-1.00342,-0.07104,-0.11719;
18:42:48.354,-1.00293,-0.06616,-0.12085;
18:42:48.364,-1.00830,-0.06055,-0.12573;
18:42:48.374,-1.01294,-0.06812,-0.13916;
18:42:48.384,-1.01147,-0.08252,-0.13452;
18:42:48.394,-1.01050,-0.09277,-0.12231;
18:42:48.404,-1.00806,-0.09961,-0.13208;
18:42:48.414,-1.00806,-0.09473,-0.14331;
18:42:48.424,-1.01050,-0.09204,-0.15063;
18:42:48.434,-1.01367,-0.08105,-0.16187;
18:42:48.444,-1.02075,-0.07007,-0.15698;
18:42:48.454,-1.02393,-0.07642,-0.13965;
18:42:48.464,-1.02441,-0.09277,-0.12964;
18:42:48.474,-1.02905,-0.09839,-0.11523;
18:42:48.484,-1.02856,-0.09497,-0.11377;
18:42:48.494,-1.03052,-0.09033,-0.11816;
18:42:48.504,-1.03955,-0.07764,-0.13623;
18:42:48.514,-1.03955,-0.06787,-0.15015;
18:42:48.524,-1.02856,-0.09351,-0.14673;
18:42:48.534,-1.01733,-0.11987,-0.14038;
18:42:48.544,-1.00024,-0.12524,-0.12939;
18:42:48.554,-0.98218,-0.13330,-0.11987;
18:42:48.564,-0.97192,-0.13965,-0.11475;
18:42:48.574,-0.97021,-0.14990,-0.11572;
18:42:48.584,-0.96973,-0.15820,-0.12744;
18:42:48.594,-0.97168,-0.16138,-0.15576;
18:42:48.604,-0.97559,-0.15723,-0.16138;
18:42:48.614,-0.96875,-0.14380,-0.15942;
18:42:48.624,-0.95703,-0.15576,-0.14014;
18:42:48.634,-0.96313,-0.17065,-0.11938;
18:42:48.644,-0.97607,-0.17090,-0.12183;
18:42:48.654,-0.99194,-0.17456,-0.11401;
18:42:48.664,-1.01221,-0.16602,-0.11548;
18:42:48.674,-1.02612,-0.14380,-0.11377;
18:42:48.684,-1.05566,-0.12231,-0.09668;
18:42:48.694,-1.09888,-0.13257,0.01929;
18:42:48.704,-1.11719,-0.11865,0.03003;
18:42:48.714,-1.15747,-0.08521,0.01440;
18:42:48.724,-1.20166,-0.02856,-0.00635;
18:42:48.734,-1.26343,0.03662,0.01147;
18:42:48.744,-1.35840,0.10107,-0.00684;
18:42:48.754,-1.45972,0.20728,-0.07837;
18:42:48.764,-1.54199,0.34058,-0.11328;
18:42:48.774,-1.74854,0.73462,-0.07935;
18:42:48.784,-1.97046,0.20264,-0.14893;
18:42:48.794,-1.56836,-0.57568,-0.08032;
18:42:48.804,-1.31689,-0.29736,-0.19702;
18:42:48.814,-1.12476,-0.14404,-0.17798;
18:42:48.824,-1.01221,-0.17261,-0.13330;
18:42:48.834,-0.94238,-0.31323,-0.16968;
18:42:48.844,-0.83716,-0.51636,-0.17798;
18:42:48.854,-0.75928,-0.87451,-0.14819;
18:42:48.864,-0.83203,-1.14160,-0.22607;
18:42:48.874,-0.71509,-1.10474,-0.23706;
18:42:48.884,-0.65576,-0.59766,-0.16284;
18:42:48.894,-0.67749,0.27759,-0.07446;
18:42:48.904,-0.36084,1.02173,0.01660;
18:42:48.914,-0.16138,0.89453,0.00513;
18:42:48.924,-0.33398,0.26050,-0.09741;
18:42:48.934,-0.36304,-0.06323,-0.07251;
18:42:48.944,-0.31982,0.00293,-0.01660;
18:42:48.954,-0.35449,0.22461,-0.00146;
18:42:48.964,-0.47510,0.39795,-0.02051;
18:42:48.974,-0.59106,0.45288,-0.02905;
18:42:48.984,-0.65088,0.38110,-0.03247;
18:42:48.994,-0.67798,0.25952,-0.03638;
18:42:49.004,-0.72485,0.16064,-0.04370;
18:42:49.014,-0.79712,0.10156,-0.04688;
18:42:49.024,-0.94531,0.01172,0.02563;
18:42:49.034,-0.98950,-0.03955,0.05249;
18:42:49.044,-1.02319,-0.07788,0.07739;
18:42:49.054,-1.07471,-0.10156,0.09351;
18:42:49.064,-1.20239,-0.11230,0.12988;
18:42:49.074,-1.25464,-0.11890,0.13208;
18:42:49.084,-1.29663,-0.12500,0.09766;
18:42:49.094,-1.34912,-0.06665,0.00171;
18:42:49.104,-1.38940,-0.00952,-0.03345;
18:42:49.114,-1.47656,0.00757,-0.07593;
18:42:49.124,-1.58447,-0.02930,-0.12988;
18:42:49.134,-1.69678,-0.05713,-0.17920;
18:42:49.144,-1.82910,-0.10303,-0.21509;
18:42:49.154,-1.94409,-0.22266,-0.26587;
18:42:49.164,-2.01147,-0.35132,-0.37524;
18:42:49.174,-2.02319,-0.51025,-0.51001;
18:42:49.184,-1.90771,-0.70728,-0.54248;
18:42:49.194,-1.72192,-0.96777,-0.37061;
18:42:49.204,-1.64307,-1.47900,-0.05078;
18:42:49.214,-1.52954,-2.10132,0.16040;
18:42:49.224,-1.24487,-2.37085,0.12524;
18:42:49.234,-1.19653,-2.17188,-0.04199;
18:42:49.244,-1.34961,-1.75562,-0.10864;
18:42:49.254,-1.46924,-1.33765,-0.10034;
18:42:49.264,-1.53345,-0.38794,-0.02417;
18:42:49.274,-0.78638,1.43921,0.32886;
18:42:49.284,-0.70459,2.02686,0.18115;
18:42:49.294,-1.94873,-0.28345,0.00757;
18:42:49.304,-1.46338,-0.00073,0.28687;
18:42:49.314,-0.76904,0.06470,-0.28369;
18:42:49.324,-0.81738,-0.05786,-0.07666;
18:42:49.334,-0.94971,0.03638,-0.24707;
18:42:49.344,-0.99219,-0.01660,-0.10645;
18:42:49.354,-1.14868,-0.12695,0.00781;
18:42:49.364,-1.04077,-0.05029,0.04077;
18:42:49.374,-1.06177,-0.01685,0.05298;
18:42:49.384,-1.07495,0.02319,0.08569;
18:42:49.394,-1.07007,0.01343,0.04663;
18:42:49.404,-1.00537,0.02441,-0.06006;
18:42:49.414,-1.04150,0.03320,-0.05029;
18:42:49.424,-1.05103,-0.00879,-0.01880;
18:42:49.434,-1.04590,-0.05103,-0.01392;
18:42:49.444,-1.04395,-0.07324,-0.05591;
18:42:49.454,-1.01172,-0.06958,-0.10620;
18:42:49.464,-0.98022,-0.07593,-0.12573;
18:42:49.474,-0.96533,-0.07544,-0.12646;
18:42:49.484,-0.97559,-0.04028,-0.12061;
18:42:49.494,-0.98315,-0.00366,-0.11328;
18:42:49.504,-0.99316,0.01367,-0.10449;
18:42:49.514,-1.00513,0.02490,-0.10425;
18:42:49.524,-1.00171,0.01440,-0.11401;
18:42:49.534,-0.99097,0.01025,-0.12109;
18:42:49.544,-0.99023,0.01318,-0.11133;
18:42:49.554,-0.98853,0.00659,-0.10059;
18:42:49.564,-0.99341,0.00195,-0.09961;
18:42:49.574,-0.99072,-0.00391,-0.10376;
18:42:49.584,-0.99365,-0.00049,-0.10107;
18:42:49.594,-1.00439,0.01270,-0.09692;
18:42:49.604,-1.01367,0.02759,-0.11279;
18:42:49.614,-1.01514,0.05029,-0.13452;
18:42:49.624,-1.01440,0.06104,-0.13770;
18:42:49.634,-1.01318,0.06274,-0.12695;
18:42:49.644,-1.01294,0.08130,-0.11304;
18:42:49.654,-1.02466,0.08862,-0.13599;
18:42:49.664,-1.05615,0.06958,-0.14917;
18:42:49.674,-1.07495,0.05786,-0.13989;
18:42:49.684,-1.09668,0.04419,-0.10693;
18:42:49.694,-1.12305,0.03052,-0.06885;
18:42:49.704,-1.12939,0.03979,-0.05835;
18:42:49.714,-1.17480,0.02246,-0.03369;
18:42:49.724,-1.21411,-0.00269,-0.03662;
18:42:49.734,-1.23682,-0.00830,-0.04028;
18:42:49.744,-1.26587,-0.01807,-0.01733;
18:42:49.754,-1.27612,-0.02881,0.02539;
18:42:49.764,-1.27515,-0.04395,0.08057;
18:42:49.774,-1.27075,-0.05078,0.08398;
18:42:49.784,-1.32104,0.01953,0.00586;
18:42:49.794,-1.44092,0.14575,-0.09546;
18:42:49.804,-1.55322,0.24023,-0.16260;
18:42:49.814,-1.62109,0.35571,-0.18213;
18:42:49.824,-1.81030,0.84692,0.15283;
18:42:49.834,-2.31152,1.35254,0.10620;
18:42:49.844,-2.33569,0.34521,-0.24829;
18:42:49.854,-1.76514,-0.25342,-0.19360;
18:42:49.864,-1.47852,0.37866,-0.40918;
18:42:49.874,-1.31250,0.53857,-0.58350;
18:42:49.884,-1.10181,-0.03101,-0.44604;
18:42:49.894,-0.87207,-0.90308,0.03589;
18:42:49.904,-0.92798,-1.33496,0.12476;
18:42:49.914,-0.91821,-0.69360,0.03076;
18:42:49.924,-0.89868,0.41943,-0.15454;
18:42:49.934,-0.50317,1.33203,-0.28125;
18:42:49.944,0.24243,2.05151,-0.13110;
18:42:49.954,0.42676,1.83887,0.06616;
18:42:49.964,0.02148,0.98682,0.03174;
18:42:49.974,-0.37622,0.26025,-0.07813;
18:42:49.984,-0.34595,0.00049,-0.04395;
18:42:49.994,-0.23755,0.01587,-0.02734;
18:42:50.004,-0.25122,0.18799,-0.05396;
18:42:50.014,-0.36353,0.33301,-0.08154;
18:42:50.024,-0.45850,0.33398,-0.07251;
18:42:50.034,-0.51001,0.24048,-0.06616;
18:42:50.044,-0.55908,0.14478,-0.07300;
18:42:50.054,-0.62842,0.07275,-0.08301;
18:42:50.064,-0.71802,0.01953,-0.10571;
18:42:50.074,-0.83911,-0.03223,-0.10840;
18:42:50.084,-0.93994,-0.07983,-0.07617;
18:42:50.094,-0.99487,-0.09619,-0.04785;
18:42:50.104,-1.03467,-0.06592,-0.03906;
18:42:50.114,-1.09839,-0.03101,-0.02661;
18:42:50.124,-1.43066,-0.13965,0.07251;
18:42:50.134,-1.51978,-0.15576,0.08813;
18:42:50.144,-1.59326,-0.10303,0.06592;
18:42:50.154,-1.75854,-0.05835,0.01733;
18:42:50.164,-2.06348,-0.13184,-0.03613;
18:42:50.174,-2.44800,-0.28394,-0.07202;
18:42:50.184,-2.77515,-0.47168,-0.13916;
18:42:50.194,-2.80566,-0.68579,-0.31860;
18:42:50.204,-2.58496,-0.87793,-0.63623;
18:42:50.214,-2.35059,-1.24023,-0.82227;
18:42:50.224,-2.11304,-2.05811,-0.23145;
18:42:50.234,-1.80664,-3.10327,0.44873;
18:42:50.244,-1.34961,-3.39551,0.15039;
18:42:50.254,-1.32690,-2.74414,-0.43970;
18:42:50.264,-1.56201,-2.02344,-0.22705;
18:42:50.274,-1.40601,-1.63159,0.08228;
18:42:50.284,-1.15942,-1.20947,-0.05493;
18:42:50.294,-1.20630,0.36011,0.56592;
18:42:50.304,-0.61401,2.79028,0.71558;
18:42:50.314,-0.57227,2.41235,-0.05884;
18:42:50.324,-1.83545,0.11377,-0.26318;
18:42:50.334,-2.90967,-0.76611,-0.17725;
18:42:50.344,-3.30200,-0.88647,0.13086;
18:42:50.354,-2.39233,-0.46313,0.21362;
18:42:50.364,0.06958,0.14575,-0.19580;
18:42:50.374,-1.13721,-0.31641,0.08545;
18:42:50.384,-1.09351,-0.03149,-0.03345;
18:42:50.394,-1.13623,-0.01880,0.02271;
18:42:50.404,-1.00488,-0.09473,-0.08887;
18:42:50.414,-0.94971,-0.09717,-0.12500;
18:42:50.424,-1.01709,-0.00220,-0.13550;
18:42:50.434,-1.02124,0.01709,-0.11377;
18:42:50.444,-1.02734,0.03662,-0.08643;
18:42:50.454,-0.95972,0.03149,-0.16162;
18:42:50.464,-0.95825,0.04053,-0.15259;
18:42:50.474,-0.96143,0.02393,-0.12842;
18:42:50.484,-0.95923,-0.00732,-0.11841;
18:42:50.494,-0.95190,-0.02515,-0.11450;
18:42:50.504,-0.95703,-0.01782,-0.11206;
18:42:50.514,-0.98120,0.01245,-0.13086;
18:42:50.524,-0.98804,0.04614,-0.16919;
18:42:50.534,-0.98975,0.06885,-0.19678;
18:42:50.544,-0.99438,0.09741,-0.18604;
18:42:50.554,-0.99097,0.11938,-0.15796;
18:42:50.564,-0.98193,0.11694,-0.13184;
18:42:50.574,-0.99902,0.08130,-0.10352;
18:42:50.584,-1.04443,0.04419,-0.08594;
18:42:50.594,-1.09131,0.04468,-0.08960;
18:42:50.604,-1.11060,0.06201,-0.10889;
18:42:50.614,-1.11230,0.09131,-0.12500;
18:42:50.624,-1.11157,0.10522,-0.10791;
18:42:50.634,-1.12183,0.08228,-0.08423;
18:42:50.644,-1.17603,0.05835,-0.07397;
18:42:50.654,-1.23779,0.03589,-0.06689;
18:42:50.664,-1.29688,0.00928,-0.02856;
18:42:50.674,-1.32349,0.01294,0.02808;
18:42:50.684,-1.33838,0.00000,0.07959;
18:42:50.694,-1.35864,-0.01074,0.12500;
18:42:50.704,-1.36987,0.00317,0.15698;
18:42:50.714,-1.42847,0.05396,0.13159;
18:42:50.724,-1.54443,0.17065,0.00195;
18:42:50.734,-1.66626,0.34692,-0.12573;
18:42:50.744,-1.76758,0.55176,-0.15991;
18:42:50.754,-1.88452,0.75464,-0.08691;
18:42:50.764,-2.05566,0.99072,0.03516;
18:42:50.774,-2.26465,1.27588,0.16357;
18:42:50.784,-2.45020,1.51343,0.16968;
18:42:50.794,-2.55933,1.37305,-0.00903;
18:42:50.804,-2.53247,0.49951,-0.28247;
18:42:50.814,-2.34741,-0.56201,-0.24878;
18:42:50.824,-2.02271,-0.32520,-0.24292;
18:42:50.834,-1.63232,0.50513,-0.70288;
18:42:50.844,-1.03418,-0.73926,0.02466;
18:42:50.854,-0.79297,-0.84375,0.02197;
18:42:50.864,-0.52588,1.04346,-0.30200;
18:42:50.874,0.14551,1.78540,-0.15332;
18:42:50.884,0.55908,1.92065,0.08618;
18:42:50.894,0.39746,1.32227,0.09448;
18:42:50.904,-0.08984,0.51196,-0.05054;
18:42:50.914,-0.27930,0.02368,-0.09741;
18:42:50.924,-0.23804,-0.15552,-0.05298;
18:42:50.934,-0.20239,-0.08545,-0.08374;
18:42:50.944,-0.23999,0.14331,-0.11182;
18:42:50.954,-0.33740,0.32617,-0.11426;
18:42:50.964,-0.43433,0.33228,-0.08276;
18:42:50.974,-0.50830,0.24170,-0.07031;
18:42:50.984,-0.56714,0.16040,-0.09521;
18:42:50.994,-0.64136,0.08862,-0.11304;
18:42:51.004,-0.73950,-0.00220,-0.12085;
18:42:51.014,-0.84155,-0.09619,-0.10010;
18:42:51.024,-0.91528,-0.12378,-0.07593;
18:42:51.034,-0.98145,-0.07739,-0.07422;
18:42:51.044,-1.05737,-0.01465,-0.08936;
18:42:51.054,-1.15796,-0.01050,-0.08398;
18:42:51.064,-1.44141,-0.09619,-0.05420;
18:42:51.074,-1.57397,-0.14258,-0.07153;
18:42:51.084,-1.69189,-0.17358,-0.10669;
18:42:51.094,-1.84375,-0.21045,-0.11646;
18:42:51.104,-2.06250,-0.24170,-0.13770;
18:42:51.114,-2.36719,-0.30811,-0.20166;
18:42:51.124,-2.68433,-0.45874,-0.27368;
18:42:51.134,-2.80908,-0.59106,-0.41113;
18:42:51.144,-2.67944,-0.96021,-0.73340;
18:42:51.154,-2.31421,-1.51123,-0.95044;
18:42:51.164,-1.91821,-2.18628,-0.32349;
18:42:51.174,-1.76831,-3.08545,0.46411;
18:42:51.184,-1.54224,-3.47778,0.26221;
18:42:51.194,-1.34985,-2.88818,-0.28564;
18:42:51.204,-1.81274,-1.04321,0.23926;
18:42:51.214,-1.10815,1.15283,0.57251;
18:42:51.224,-0.34912,2.48560,0.47388;
18:42:51.234,-1.17773,0.89893,0.38550;
18:42:51.244,-2.53784,-0.64307,-0.04443;
18:42:51.254,-3.14014,-0.42773,0.13379;
18:42:51.264,-2.71289,-0.14990,0.82813;
18:42:51.274,-1.64648,-0.13794,0.36133;
18:42:51.284,-0.57739,-0.01758,-0.15625;
18:42:51.294,-0.37231,0.09253,-0.17114;
18:42:51.304,-0.59302,0.05518,-0.43872;
18:42:51.314,-0.60864,-0.01758,-0.46582;
18:42:51.324,-1.09692,-0.32080,0.07178;
18:42:51.334,-1.09937,-0.12817,0.15015;
18:42:51.344,-1.20947,-0.06372,0.00195;
18:42:51.354,-0.93579,-0.10986,-0.17676;
18:42:51.364,-0.90308,-0.09473,-0.16162;
18:42:51.374,-1.02637,0.03833,-0.05054;
18:42:51.384,-1.04077,0.05908,-0.12012;
18:42:51.394,-0.96924,-0.03271,-0.15063;
18:42:51.404,-0.97705,-0.01099,-0.11548;
18:42:51.414,-0.98120,0.01050,-0.12524;
18:42:51.424,-0.98096,0.04419,-0.14258;
18:42:51.434,-0.97803,0.06616,-0.14941;
18:42:51.444,-0.97705,0.06006,-0.13867;
18:42:51.454,-0.97119,0.03711,-0.11108;
18:42:51.464,-0.96582,0.01270,-0.09204;
18:42:51.474,-0.97144,0.00024,-0.09473;
18:42:51.484,-0.97412,0.00781,-0.11060;
18:42:51.494,-0.98340,0.01855,-0.12524;
18:42:51.504,-0.99390,0.02441,-0.15186;
18:42:51.514,-0.98657,0.03760,-0.17383;
18:42:51.524,-0.99658,0.05981,-0.16260;
18:42:51.534,-1.00977,0.06616,-0.15161;
18:42:51.544,-1.00952,0.05591,-0.13647;
18:42:51.554,-1.02808,0.01123,-0.08887;
18:42:51.564,-1.06543,-0.05396,-0.03931;
18:42:51.574,-1.11377,-0.01880,-0.08032;
18:42:51.584,-1.11694,0.04858,-0.10547;
18:42:51.594,-1.12891,0.08569,-0.09814;
18:42:51.604,-1.22461,0.05103,-0.07397;
18:42:51.614,-1.26074,0.01514,-0.03516;
18:42:51.624,-1.28809,-0.00195,0.00854;
18:42:51.634,-1.31909,-0.01782,0.04663;
18:42:51.644,-1.33228,-0.03906,0.09106;
18:42:51.654,-1.33740,-0.00586,0.04907;
18:42:51.664,-1.38330,0.10303,-0.03662;
18:42:51.674,-1.47363,0.19360,-0.08569;
18:42:51.684,-1.57495,0.27515,-0.14917;
18:42:51.694,-1.64307,0.40527,-0.18384;
18:42:51.704,-1.73901,0.57861,-0.12549;
18:42:51.714,-1.89307,0.78613,-0.01416;
18:42:51.724,-2.07397,1.01123,0.07813;
18:42:51.734,-2.28589,1.31689,0.09741;
18:42:51.744,-2.48462,1.46777,0.00513;
18:42:51.754,-2.55151,1.04639,-0.12524;
18:42:51.764,-2.38135,0.01050,-0.22827;
18:42:51.774,-1.97803,-0.41260,-0.17480;
18:42:51.784,-1.59131,0.13647,-0.34546;
18:42:51.794,-1.32861,0.56738,-0.51758;
18:42:51.804,-1.14355,0.26782,-0.56348;
18:42:51.814,-0.93604,-0.42358,-0.15503;
18:42:51.824,-0.91870,-1.01050,-0.04321;
18:42:51.834,-0.89819,-1.03198,-0.08911;
18:42:51.844,-0.76221,-0.44946,-0.06567;
18:42:51.854,-0.82788,0.12183,-0.09863;
18:42:51.864,-0.54468,0.88501,-0.10132;
18:42:51.874,0.09741,1.67163,-0.16724;
18:42:51.884,-0.21045,0.19214,-0.00024;
18:42:51.894,-0.36548,-0.23560,0.02954;
18:42:51.904,-0.22656,0.23535,-0.06445;
18:42:51.914,-0.46533,0.27930,-0.02710;
18:42:51.924,-0.60278,0.10693,-0.05713;
18:42:51.934,-0.67310,0.03979,-0.09595;
18:42:51.944,-0.75000,0.00684,-0.09888;
18:42:51.954,-0.85474,0.00610,-0.06787;
18:42:51.964,-0.95264,0.00952,-0.05005;
18:42:51.974,-1.01538,0.02734,-0.04736;
18:42:51.984,-1.08154,0.04028,-0.03760;
18:42:51.994,-1.32007,-0.02832,-0.01221;
18:42:52.004,-1.46582,-0.06348,-0.00342;
18:42:52.014,-1.60840,-0.10693,-0.01514;
18:42:52.024,-1.75806,-0.17383,-0.05713;
18:42:52.034,-1.96387,-0.28076,-0.08154;
18:42:52.044,-2.21704,-0.36328,-0.09424;
18:42:52.054,-2.50781,-0.38623,-0.15942;
18:42:52.064,-2.74658,-0.52441,-0.24048;
18:42:52.074,-2.73804,-0.69849,-0.38086;
18:42:52.084,-2.59131,-1.02856,-0.69263;
18:42:52.094,-1.88818,-2.25854,-0.22803;
18:42:52.104,-1.71094,-3.00708,0.23193;
18:42:52.114,-1.49243,-3.06274,-0.08008;
18:42:52.124,-1.43384,-2.40039,-0.45703;
18:42:52.134,-1.54517,-1.83447,-0.31714;
18:42:52.144,-1.53003,-1.54370,-0.07886;
18:42:52.154,-1.47705,-0.30029,0.37280;
18:42:52.164,-0.78101,1.99341,0.99048;
18:42:52.174,-0.70386,2.12109,0.65723;
18:42:52.184,-1.65039,0.09204,0.20239;
18:42:52.194,-2.44751,-0.78320,0.01245;
18:42:52.204,-2.62549,-0.38257,0.28662;
18:42:52.214,-1.97852,0.06201,0.45972;
18:42:52.224,-0.95654,0.22803,0.02881;
18:42:52.234,-0.38794,0.04346,-0.46436;
18:42:52.244,-0.61841,-0.23755,-0.47852;
18:42:52.254,-0.69775,-0.19067,-0.17310;
18:42:52.264,-0.86450,-0.02759,-0.28076;
18:42:52.274,-1.16650,-0.03564,-0.05933;
18:42:52.284,-1.25415,-0.07495,0.21362;
18:42:52.294,-1.07813,-0.05688,0.01147;
18:42:52.304,-0.91821,-0.08301,-0.03784;
18:42:52.314,-1.01245,-0.00513,-0.08057;
18:42:52.324,-1.04370,0.08545,-0.07227;
18:42:52.334,-1.03516,0.07544,-0.02563;
18:42:52.344,-1.05054,0.04028,-0.03589;
18:42:52.354,-1.04077,0.06299,-0.07324;
18:42:52.364,-1.02832,0.04980,-0.11475;
18:42:52.374,-0.98633,-0.00342,-0.14307;
18:42:52.384,-0.98364,-0.02319,-0.13843;
18:42:52.394,-0.98535,-0.02368,-0.12256;
18:42:52.404,-0.98120,-0.01758,-0.10571;
18:42:52.414,-0.99487,0.01440,-0.10620;
18:42:52.424,-0.97729,0.10400,-0.11719;
18:42:52.434,-0.97803,0.09619,-0.10571;
18:42:52.444,-0.98267,0.05591,-0.10425;
18:42:52.454,-0.99292,0.03564,-0.09985;
18:42:52.464,-0.99902,0.02979,-0.10864;
18:42:52.474,-0.99756,0.03149,-0.11938;
18:42:52.484,-1.00488,0.04932,-0.12573;
18:42:52.494,-1.01416,0.06128,-0.13647;
18:42:52.504,-1.01514,0.07007,-0.13867;
18:42:52.514,-1.02441,0.05811,-0.12451;
18:42:52.524,-1.02588,0.00464,-0.10718;
18:42:52.534,-1.04541,-0.01758,-0.09595;
18:42:52.544,-1.06421,-0.01538,-0.09985;
18:42:52.554,-1.06934,0.06421,-0.14307;
18:42:52.564,-1.16016,0.05469,-0.06860;
18:42:52.574,-1.22583,0.05054,-0.06030;
18:42:52.584,-1.29053,0.04492,-0.02832;
18:42:52.594,-1.31812,0.02051,0.03833;
18:42:52.604,-1.30566,-0.03394,0.10059;
18:42:52.614,-1.32104,-0.06250,0.08984;
18:42:52.624,-1.35840,-0.01831,-0.00635;
18:42:52.634,-1.43213,0.09229,-0.07861;
18:42:52.644,-1.52393,0.15186,-0.10840;
18:42:52.654,-1.59570,0.21411,-0.13525;
18:42:52.664,-1.64819,0.34277,-0.13184;
18:42:52.674,-1.73242,0.48608,-0.07056;
18:42:52.684,-1.88550,0.64502,0.01465;
18:42:52.694,-2.06787,0.86743,0.07666;
18:42:52.704,-2.25513,1.21460,0.09692;
18:42:52.714,-2.43750,1.49146,0.04077;
18:42:52.724,-2.50269,1.36304,-0.07056;
18:42:52.734,-2.35889,0.51904,-0.12378;
18:42:52.744,-2.04883,-0.27612,-0.11987;
18:42:52.754,-1.76440,-0.12939,-0.36108;
18:42:52.764,-1.49609,0.47339,-0.39429;
18:42:52.774,-1.25488,0.69556,-0.48364;
18:42:52.784,-1.07495,-0.02539,-0.46045;
18:42:52.794,-0.91577,-0.98804,-0.19775;
18:42:52.804,-0.90747,-1.45825,-0.06494;
18:42:52.814,-0.83496,-1.00757,0.10327;
18:42:52.824,-0.89087,0.13281,0.05298;
18:42:52.834,-0.67334,1.19092,-0.16431;
18:42:52.844,0.60181,2.20581,0.04419;
18:42:52.854,0.23706,1.30322,0.05396;
18:42:52.864,-0.34937,0.30029,0.01416;
18:42:52.874,-0.44604,-0.11401,0.06641;
18:42:52.884,-0.29150,-0.14746,0.02271;
18:42:52.894,-0.20703,0.05591,-0.05347;
18:42:52.904,-0.45605,0.40454,0.00830;
18:42:52.914,-0.57520,0.28003,0.06689;
18:42:52.924,-0.62329,0.15991,0.05029;
18:42:52.934,-0.66602,0.11719,-0.00244;
18:42:52.944,-0.73486,0.08716,-0.03003;
18:42:52.954,-0.83276,0.03711,-0.00830;
18:42:52.964,-0.99731,0.06030,0.04932;
18:42:52.974,-1.27808,0.00537,0.07275;
18:42:52.984,-1.55811,-0.08789,0.09155;
18:42:52.994,-1.88403,-0.19409,0.00732;
18:42:53.004,-2.13647,-0.36279,0.01099;
18:42:53.014,-2.41309,-0.44800,-0.03247;
18:42:53.024,-2.67285,-0.59082,-0.15039;
18:42:53.034,-2.72876,-0.83252,-0.29004;
18:42:53.044,-2.60889,-1.13428,-0.55566;
18:42:53.054,-2.44189,-1.54907,-0.83887;
18:42:53.064,-2.12476,-2.21094,-0.46924;
18:42:53.074,-1.87622,-3.03955,0.19434;
18:42:53.084,-1.58984,-3.47363,0.08447;
18:42:53.094,-1.29541,-3.02246,-0.31738;
18:42:53.104,-1.46704,-2.25928,-0.24561;
18:42:53.114,-1.91772,-1.31226,0.01343;
18:42:53.124,-1.41797,0.80640,0.26367;
18:42:53.134,-0.55713,2.68091,0.32520;
18:42:53.144,-1.17456,1.40747,0.07495;
18:42:53.154,-2.29736,-0.63037,-0.12061;
18:42:53.164,-2.88599,-0.88525,0.06079;
18:42:53.174,-2.58203,-0.40015,0.58813;
18:42:53.184,-1.39575,0.19189,0.56567;
18:42:53.194,-0.57739,0.05518,-0.21191;
18:42:53.204,-0.51440,-0.36011,-0.28931;
18:42:53.214,-0.73682,-0.58105,-0.21387;
18:42:53.224,-0.95288,-0.32861,-0.22168;
18:42:53.234,-1.08105,0.12500,0.01904;
18:42:53.244,-1.17188,-0.09033,0.05933;
18:42:53.254,-0.92090,-0.10254,-0.13940;
18:42:53.264,-0.91309,-0.06567,-0.10107;
18:42:53.274,-1.08301,-0.01489,-0.06714;
18:42:53.284,-1.03345,-0.01392,-0.03638;
18:42:53.294,-1.05469,0.02905,-0.06470;
18:42:53.304,-1.04468,0.06421,-0.11816;
18:42:53.314,-1.00806,0.03467,-0.14331;
18:42:53.324,-0.99316,-0.00537,-0.14331;
18:42:53.334,-0.97949,-0.00732,-0.12524;
18:42:53.344,-0.96387,0.00073,-0.11890;
18:42:53.354,-0.95825,0.01855,-0.11377;
18:42:53.364,-0.96875,0.04150,-0.11230;
18:42:53.374,-0.97290,0.06104,-0.11304;
18:42:53.384,-0.96753,0.06860,-0.11987;
18:42:53.394,-0.96387,0.05493,-0.12842;
18:42:53.404,-0.95483,0.05176,-0.13062;
18:42:53.414,-0.94922,0.04248,-0.11328;
18:42:53.424,-0.95337,0.02808,-0.11011;
18:42:53.434,-0.96875,0.03857,-0.12695;
18:42:53.444,-0.98926,0.08984,-0.13379;
18:42:53.454,-1.00830,0.08789,-0.11865;
18:42:53.464,-1.01001,0.09888,-0.12354;
18:42:53.474,-1.00854,0.12524,-0.12354;
18:42:53.484,-1.04321,0.02344,-0.06055;
18:42:53.494,-1.12134,0.04858,-0.09912;
18:42:53.504,-1.14209,0.09814,-0.09302;
18:42:53.514,-1.17969,0.06616,-0.05347;
18:42:53.524,-1.23511,0.04150,-0.02563;
18:42:53.534,-1.29248,0.01318,0.02124;
18:42:53.544,-1.33130,-0.02051,0.05151;
18:42:53.554,-1.34106,-0.02856,0.10522;
18:42:53.564,-1.33057,-0.04932,0.17529;
18:42:53.574,-1.35156,-0.04468,0.13379;
18:42:53.584,-1.41187,0.06812,0.02393;
18:42:53.594,-1.52222,0.22876,-0.07422;
18:42:53.604,-1.66284,0.35425,-0.14990;
18:42:53.614,-1.80420,0.49780,-0.19531;
18:42:53.624,-1.96118,0.69702,-0.14551;
18:42:53.634,-2.13208,0.91064,0.00366;
18:42:53.644,-2.32642,1.20776,0.15088;
18:42:53.654,-2.53711,1.50244,0.19507;
18:42:53.664,-2.62671,1.51685,0.08496;
18:42:53.674,-2.49585,0.87866,-0.15430;
18:42:53.684,-2.18188,-0.19019,-0.23267;
18:42:53.694,-1.76392,-0.27100,-0.29712;
18:42:53.704,-1.47266,0.26978,-0.48389;
18:42:53.714,-1.31567,0.31201,-0.73462;
18:42:53.724,-1.01489,-0.39819,-0.37524;
18:42:53.734,-0.83472,-1.13696,-0.06030;
18:42:53.744,-0.90015,-1.34204,-0.03076;
18:42:53.754,-0.81396,-0.43237,0.01636;
18:42:53.764,-0.81763,0.59253,-0.15796;
18:42:53.774,-0.44849,1.29736,-0.26855;
18:42:53.784,0.19165,0.83496,-0.01733;
18:42:53.794,-0.17969,0.12256,-0.08057;
18:42:53.804,-0.20947,-0.14844,-0.04639;
18:42:53.814,-0.14624,-0.20874,-0.03125;
18:42:53.824,-0.15161,-0.07104,-0.10303;
18:42:53.834,-0.22168,0.14722,-0.13770;
18:42:53.844,-0.32031,0.25293,-0.13135;
18:42:53.854,-0.41187,0.20728,-0.11230;
18:42:53.864,-0.46851,0.18750,-0.13208;
18:42:53.874,-0.52222,0.17358,-0.14990;
18:42:53.884,-0.61646,0.10107,-0.16992;
18:42:53.894,-0.71509,-0.00781,-0.19385;
18:42:53.904,-0.86450,-0.07910,-0.14136;
18:42:53.914,-0.93530,-0.02979,-0.13843;
18:42:53.924,-1.00830,-0.00537,-0.13257;
18:42:53.934,-1.10474,-0.00537,-0.12793;
18:42:53.944,-1.38550,0.02393,-0.12769;
18:42:53.954,-1.53296,-0.01294,-0.13843;
18:42:53.964,-1.68970,-0.10718,-0.15186;
18:42:53.974,-1.88647,-0.24365,-0.15527;
18:42:53.984,-2.12451,-0.40063,-0.16553;
18:42:53.994,-2.39526,-0.54102,-0.18994;
18:42:54.004,-2.63550,-0.69727,-0.19556;
18:42:54.014,-2.62085,-1.68066,-0.75903;
18:42:54.024,-1.76099,-3.00903,0.28589;
18:42:54.034,-1.21338,-2.79980,-0.26123;
18:42:54.044,-1.53687,-1.80884,-0.05688;
18:42:54.054,-1.54761,-0.49292,0.41650;
18:42:54.064,-0.68970,1.71729,0.76611;
18:42:54.074,-0.90186,2.08301,0.50171;
18:42:54.084,-1.90967,0.42627,-0.01709;
18:42:54.094,-2.49292,-0.33740,-0.09204;
18:42:54.104,-2.78296,-0.69238,-0.01489;
18:42:54.114,-2.37842,-0.93774,0.43872;
18:42:54.124,-1.55640,-0.39673,0.72681;
18:42:54.134,-0.79419,0.33667,0.08154;
18:42:54.144,-0.34180,0.21802,-0.47827;
18:42:54.154,-0.51978,-0.28979,-0.30200;
18:42:54.164,-0.88965,-0.31348,-0.11206;
18:42:54.174,-1.01587,0.15039,-0.05347;
18:42:54.184,-1.13403,0.05103,0.00415;
18:42:54.194,-1.12671,-0.04736,-0.01563;
18:42:54.204,-0.96460,0.00684,-0.14453;
18:42:54.214,-1.00708,-0.00488,-0.11206;
18:42:54.224,-1.06494,0.02905,-0.08618;
18:42:54.234,-1.02734,0.04248,-0.07495;
18:42:54.244,-1.02881,0.06738,-0.08228;
18:42:54.254,-1.02979,0.07886,-0.10522;
18:42:54.264,-1.02588,0.09009,-0.13184;
18:42:54.274,-1.00635,0.08838,-0.13989;
18:42:54.284,-0.96045,0.00903,-0.10718;
18:42:54.294,-0.96045,0.00952,-0.10376;
18:42:54.304,-0.96558,0.02173,-0.11816;
18:42:54.314,-0.96313,0.04688,-0.13672;
18:42:54.324,-0.94849,0.05005,-0.12329;
18:42:54.334,-0.96753,0.03833,-0.11890;
18:42:54.344,-0.96997,0.04517,-0.10864;
18:42:54.354,-0.95752,0.03394,-0.07520;
18:42:54.364,-0.95825,0.00220,-0.06860;
18:42:54.374,-0.95337,-0.00928,-0.08594;
18:42:54.384,-1.01074,0.04541,-0.10229;
18:42:54.394,-1.02100,0.03979,-0.12744;
18:42:54.404,-1.04712,0.06592,-0.14282;
18:42:54.414,-1.07129,0.10254,-0.12305;
18:42:54.424,-1.09863,0.10938,-0.09741;
18:42:54.434,-1.18970,0.05151,0.00854;
18:42:54.444,-1.25366,0.01270,0.05444;
18:42:54.454,-1.29224,-0.01587,0.10498;
18:42:54.464,-1.33203,-0.04321,0.15063;
18:42:54.474,-1.34863,-0.00464,0.23413;
18:42:54.484,-1.60181,0.34351,0.05029;
18:42:54.494,-1.99731,0.78174,0.11011;
18:42:54.504,-2.50757,1.33130,0.41138;
18:42:54.514,-2.68652,1.55859,0.40942;
18:42:54.524,-2.74854,1.44434,0.09180;
18:42:54.534,-2.49780,0.67358,-0.22290;
18:42:54.544,-2.03198,-0.24487,-0.39673;
18:42:54.554,-1.82544,-0.42456,-0.74902;
18:42:54.564,-1.72314,-0.11719,-0.91211;
18:42:54.574,-1.47656,-0.25952,-0.63525;
18:42:54.584,-1.01611,-0.72656,-0.17578;
18:42:54.594,-0.77368,-0.95044,-0.13379;
18:42:54.604,-0.73022,-1.04395,0.14453;
18:42:54.614,-0.69678,-0.16992,0.08716;
18:42:54.624,-0.70996,1.01196,-0.30005;
18:42:54.634,0.48047,1.56665,-0.25049;
18:42:54.644,0.04590,0.38184,-0.24121;
18:42:54.654,-0.18311,-0.19409,-0.11450;
18:42:54.664,-0.09229,-0.11475,-0.11841;
18:42:54.674,-0.06519,0.14551,-0.27148;
18:42:54.684,-0.15283,0.36523,-0.44531;
18:42:54.694,-0.22607,0.33960,-0.41577;
18:42:54.704,-0.29175,0.21045,-0.32715;
18:42:54.714,-0.35376,0.16064,-0.38672;
18:42:54.724,-0.41968,0.20630,-0.44141;
18:42:54.734,-0.54932,0.16479,-0.45630;
18:42:54.744,-0.69263,0.03564,-0.49194;
18:42:54.754,-0.79150,-0.09814,-0.50464;
18:42:54.764,-0.86157,-0.12744,-0.48877;
18:42:54.774,-0.93433,-0.06494,-0.47778;
18:42:54.784,-1.01392,-0.02515,-0.48145;
18:42:54.794,-1.21704,-0.07813,-0.45850;
18:42:54.804,-1.36963,-0.12524,-0.42480;
18:42:54.814,-1.52954,-0.20264,-0.40308;
18:42:54.824,-1.65308,-0.24707,-0.40723;
18:42:54.834,-1.75854,-0.25439,-0.42676;
18:42:54.844,-1.90430,-0.26025,-0.47461;
18:42:54.854,-2.09155,-0.28149,-0.59131;
18:42:54.864,-2.32153,-0.37061,-0.75513;
18:42:54.874,-2.52100,-0.48853,-0.93555;
18:42:54.884,-2.58179,-0.59937,-1.05029;
18:42:54.894,-2.42236,-0.37720,-0.78149;
18:42:54.904,-2.43018,-0.63330,-0.56372;
18:42:54.914,-2.20654,-2.00195,-0.68555;
18:42:54.924,-1.32495,-3.16943,-0.38135;
18:42:54.934,-1.34741,-3.17700,-0.14258;
18:42:54.944,-2.36060,-2.14526,0.44360;
18:42:54.954,-0.72925,-1.61279,1.44092;
18:42:54.964,-0.60400,0.18164,1.70337;
18:42:54.974,-1.33862,1.12207,1.19385;
18:42:54.984,-2.32422,0.50659,0.44922;
18:42:54.994,-1.09546,-0.08057,-0.02563;
18:42:55.004,-0.28857,-0.03638,-0.63403;
18:42:55.014,-0.89185,-0.11353,-0.38794;
18:42:55.024,-0.97144,0.01025,0.13110;
18:42:55.034,-1.21411,-0.02124,0.45654;
18:42:55.044,-1.27124,-0.23608,0.30835;
18:42:55.054,-0.94702,-0.04663,0.01196;
18:42:55.064,-0.93799,0.02051,0.01123;
18:42:55.074,-1.04639,-0.01270,0.01685;
18:42:55.084,-1.00439,0.03101,0.00977;
18:42:55.094,-1.00513,0.10132,-0.01563;
18:42:55.104,-1.02100,0.11987,-0.02734;
18:42:55.114,-1.01611,0.10083,-0.03247;
18:42:55.124,-1.00244,0.02979,0.01050;
18:42:55.134,-0.98901,-0.02271,0.05859;
18:42:55.144,-1.00293,-0.02539,0.07153;
18:42:55.154,-1.00830,-0.01245,0.05396;
18:42:55.164,-0.99487,0.00708,0.01221;
18:42:55.174,-0.98193,0.03223,-0.03516;
18:42:55.184,-0.96289,0.04395,-0.05786;
18:42:55.194,-0.95850,0.03003,-0.04517;
18:42:55.204,-0.95850,0.01196,-0.02979;
18:42:55.214,-0.96045,-0.01221,-0.02246;
18:42:55.224,-0.96655,-0.03369,-0.01270;
18:42:55.234,-0.97632,-0.04834,-0.01880;
18:42:55.244,-0.99048,-0.06006,-0.03467;
18:42:55.254,-0.99902,-0.04419,-0.00757;
18:42:55.264,-1.01123,-0.02295,0.00952;
18:42:55.274,-1.01587,0.00806,0.01392;
18:42:55.284,-1.03003,0.03589,0.03784;
18:42:55.294,-1.05664,0.04175,0.07813;
18:42:55.304,-1.08765,0.04126,0.10327;
18:42:55.314,-1.12134,0.04370,0.11987;
18:42:55.324,-1.14087,0.03223,0.12329;
18:42:55.334,-1.14673,0.03223,0.08691;
18:42:55.344,-1.14673,0.04590,0.05420;
18:42:55.354,-1.16064,0.05249,0.04150;
18:42:55.364,-1.18994,0.05469,0.06421;
18:42:55.374,-1.24902,0.02832,0.09912;
18:42:55.384,-1.33154,0.02686,0.14038;
18:42:55.394,-1.36621,0.03540,0.23926;
18:42:55.404,-1.34009,0.02637,0.35669;
18:42:55.414,-1.38965,0.05615,0.31909;
18:42:55.424,-1.53857,0.19604,0.14844;
18:42:55.434,-1.69971,0.39893,0.03906;
18:42:55.444,-1.84717,0.59888,0.05493;
18:42:55.454,-2.00659,0.83984,0.18774;
18:42:55.464,-2.21533,1.11206,0.30127;
18:42:55.474,-2.45654,1.35815,0.19629;
18:42:55.484,-2.62061,1.48145,-0.14331;
18:42:55.494,-2.50928,1.22461,-0.43750;
18:42:55.504,-2.14575,0.38916,-0.67285;
18:42:55.514,-1.84155,-0.14624,-0.58740;
18:42:55.524,-0.89526,-0.99390,-0.06982;
18:42:55.534,-0.81665,-0.30127,0.49243;
18:42:55.544,-1.12280,0.71680,-0.14209;
18:42:55.554,-0.46313,1.64063,-0.40625;
18:42:55.564,0.49878,2.13940,-0.19067;
18:42:55.574,0.43018,1.52588,-0.14478;
18:42:55.584,-0.06934,0.80176,-0.23218;
18:42:55.594,-0.30127,0.38623,-0.31030;
18:42:55.604,-0.20337,0.27588,-0.30322;
18:42:55.614,-0.15576,0.27734,-0.37646;
18:42:55.624,-0.20264,0.36597,-0.45752;
18:42:55.634,-0.31006,0.36719,-0.45239;
18:42:55.644,-0.40454,0.34277,-0.43994;
18:42:55.654,-0.50024,0.36279,-0.48022;
18:42:55.664,-0.60352,0.32251,-0.45850;
18:42:55.674,-0.71948,0.17651,-0.45337;
18:42:55.684,-0.83521,0.00464,-0.50073;
18:42:55.694,-0.92139,-0.12622,-0.50415;
18:42:55.704,-0.97754,-0.17920,-0.47217;
18:42:55.714,-1.18579,-0.08765,-0.47437;
18:42:55.724,-1.26294,-0.05322,-0.47559;
18:42:55.734,-1.36987,-0.07471,-0.45972;
18:42:55.744,-1.46411,-0.14380,-0.45215;
18:42:55.754,-1.52710,-0.23096,-0.45044;
18:42:55.764,-1.56982,-0.26978,-0.44604;
18:42:55.774,-1.64282,-0.25684,-0.42114;
18:42:55.784,-1.69653,-0.17603,-0.36743;
18:42:55.794,-1.84082,-0.18677,-0.42310;
18:42:55.804,-2.11011,-0.40039,-0.61670;
18:42:55.814,-2.25879,-0.66504,-0.78638;
18:42:55.824,-2.16333,-0.82837,-0.73682;
18:42:55.834,-2.27393,-0.85815,-0.75220;
18:42:55.844,-2.47754,-1.18042,-0.92432;
18:42:55.854,-2.11255,-1.79517,-0.63013;
18:42:55.864,-1.53101,-2.42871,0.02319;
18:42:55.874,-1.26904,-2.84155,0.22388;
18:42:55.884,-1.34619,-2.71484,-0.04272;
18:42:55.894,-1.40356,-2.23584,-0.08911;
18:42:55.904,-1.52100,-1.40405,0.35522;
18:42:55.914,-1.34814,-0.21143,1.08887;
18:42:55.924,-0.69580,1.31470,1.26025;
18:42:55.934,-0.92773,1.37964,0.81860;
18:42:55.944,-1.88721,0.31079,0.36328;
18:42:55.954,-2.58618,0.00269,0.23901;
18:42:55.964,-2.96826,-0.24268,0.15820;
18:42:55.974,-2.40210,-0.49341,0.20068;
18:42:55.984,-1.11646,-0.32813,0.20728;
18:42:55.994,-0.16187,0.03418,-0.14111;
18:42:56.004,-0.19507,0.22510,-0.34814;
18:42:56.014,-0.79419,0.09570,-0.36035;
18:42:56.024,-0.94580,-0.17676,-0.15723;
18:42:56.034,-0.93945,-0.13501,0.10791;
18:42:56.044,-1.31299,-0.08716,0.20508;
18:42:56.054,-0.92676,-0.04761,-0.04053;
18:42:56.064,-0.99463,0.06958,-0.07422;
18:42:56.074,-0.98389,0.13086,-0.03223;
18:42:56.084,-1.02271,0.13257,0.00220;
18:42:56.094,-1.03906,0.12427,-0.00293;
18:42:56.104,-1.02075,0.11182,-0.02661;
18:42:56.114,-0.98193,0.03784,-0.02002;
18:42:56.124,-0.96436,-0.01318,0.01929;
18:42:56.134,-0.99048,-0.02051,0.05176;
18:42:56.144,-1.00610,-0.01904,0.04468;
18:42:56.154,-0.99414,0.00586,0.00195;
18:42:56.164,-0.98071,0.05737,-0.04321;
18:42:56.174,-0.96973,0.08496,-0.06152;
18:42:56.184,-0.96411,0.07983,-0.05127;
18:42:56.194,-0.96021,0.06323,-0.03101;
18:42:56.204,-0.96802,0.05591,0.00195;
18:42:56.214,-0.99707,0.04688,0.01245;
18:42:56.224,-1.01489,0.02417,-0.00732;
18:42:56.234,-1.01318,0.00391,-0.01270;
18:42:56.244,-1.01392,-0.01587,-0.02637;
18:42:56.254,-1.01050,-0.02246,-0.02295;
18:42:56.264,-1.02393,-0.01709,-0.00537;
18:42:56.274,-1.05127,-0.00635,-0.00049;
18:42:56.284,-1.07861,0.01025,0.02686;
18:42:56.294,-1.05786,-0.01685,0.06909;
18:42:56.304,-1.08936,-0.00269,0.06079;
18:42:56.314,-1.14380,0.05127,0.03442;
18:42:56.324,-1.19946,0.06787,0.08008;
18:42:56.334,-1.22168,0.03198,0.13696;
18:42:56.344,-1.27148,0.01099,0.14258;
18:42:56.354,-1.32300,0.02368,0.14038;
18:42:56.364,-1.31714,0.02759,0.21997;
18:42:56.374,-1.31128,-0.01855,0.30762;
18:42:56.384,-1.36523,-0.00195,0.23657;
18:42:56.394,-1.50464,0.13818,0.07104;
18:42:56.404,-1.68555,0.29810,-0.05078;
18:42:56.414,-1.84448,0.43677,-0.08105;
18:42:56.424,-1.97559,0.59180,0.01099;
18:42:56.434,-2.14331,0.83276,0.14917;
18:42:56.444,-2.38843,1.13550,0.16113;
18:42:56.454,-2.63916,1.46094,0.00952;
18:42:56.464,-2.56982,1.70630,0.00977;
18:42:56.474,-2.21021,1.40991,-0.47461;
18:42:56.484,-2.02417,0.06860,-0.97583;
18:42:56.494,-1.93286,-0.71680,-0.64014;
18:42:56.504,-1.64624,-0.53955,-0.45801;
18:42:56.514,-1.21094,-0.62769,-0.42700;
18:42:56.524,-0.78467,-0.76685,-0.23364;
18:42:56.534,-0.63940,-0.88208,0.17163;
18:42:56.544,-1.06274,-0.75464,0.59717;
18:42:56.554,-1.38721,-0.08130,-0.01660;
18:42:56.564,-0.62720,1.01489,-0.27441;
18:42:56.574,0.22119,1.60669,-0.07153;
18:42:56.584,-0.17334,0.59131,-0.33643;
18:42:56.594,-0.06152,0.35010,-0.38379;
18:42:56.604,-0.35474,0.33447,-0.32520;
18:42:56.614,-0.42676,0.28223,-0.34888;
18:42:56.624,-0.46729,0.29858,-0.35376;
18:42:56.634,-0.56079,0.27441,-0.32861;
18:42:56.644,-0.66211,0.16309,-0.33667;
18:42:56.654,-0.75366,0.01025,-0.38818;
18:42:56.664,-0.83008,-0.06982,-0.41675;
18:42:56.674,-0.88281,-0.07153,-0.42651;
18:42:56.684,-0.93774,-0.04517,-0.42310;
18:42:56.694,-0.99707,-0.02466,-0.42578;
18:42:56.704,-1.18506,0.03491,-0.47852;
18:42:56.714,-1.28442,0.04077,-0.49756;
18:42:56.724,-1.38159,0.01440,-0.49854;
18:42:56.734,-1.47339,-0.01636,-0.48828;
18:42:56.744,-1.57520,-0.05249,-0.47046;
18:42:56.754,-1.75391,-0.12744,-0.48486;
18:42:56.764,-1.98438,-0.23413,-0.54932;
18:42:56.774,-2.22900,-0.23706,-0.43677;
18:42:56.784,-2.45728,-0.46680,-0.51147;
18:42:56.794,-2.54126,-0.73608,-0.58276;
18:42:56.804,-2.45776,-1.07129,-0.64893;
18:42:56.814,-2.32080,-1.66675,-0.73218;
18:42:56.824,-1.96509,-2.33911,-0.36206;
18:42:56.834,-1.66724,-2.99316,0.18945;
18:42:56.844,-1.44629,-3.14111,0.13965;
18:42:56.854,-1.27197,-2.68433,-0.16821;
18:42:56.864,-1.25806,-2.09644,-0.11255;
18:42:56.874,-1.31543,-1.66431,0.20044;
18:42:56.884,-1.25024,0.16260,1.07959;
18:42:56.894,-0.75391,2.47437,1.31201;
18:42:56.904,-0.84717,2.03906,0.65234;
18:42:56.914,-1.78223,0.01392,0.37036;
18:42:56.924,-2.69873,-0.55640,0.28589;
18:42:56.934,-2.95630,-0.24438,0.47607;
18:42:56.944,-2.25000,-0.44165,0.15112;
18:42:56.954,-1.19580,-0.57031,-0.13599;
18:42:56.964,-0.42529,-0.08740,-0.02002;
18:42:56.974,-0.40381,0.36230,-0.35596;
18:42:56.984,-0.77222,0.11377,-0.38062;
18:42:56.994,-1.05811,-0.35547,-0.03125;
18:42:57.004,-1.25049,-0.07617,0.16797;
18:42:57.014,-1.15820,-0.05518,0.02124;
18:42:57.024,-0.93140,-0.10986,-0.09741;
18:42:57.034,-0.97485,-0.09009,-0.08276;
18:42:57.044,-1.06250,0.00781,-0.06470;
18:42:57.054,-1.02563,0.06104,-0.04590;
18:42:57.064,-1.03418,0.05518,-0.05591;
18:42:57.074,-1.04224,0.06665,-0.07227;
18:42:57.084,-0.99390,0.07471,-0.10645;
18:42:57.094,-0.97461,0.00098,-0.06567;
18:42:57.104,-0.96606,0.00732,-0.10181;
18:42:57.114,-0.95581,0.02905,-0.11426;
18:42:57.124,-0.96289,0.01807,-0.08521;
18:42:57.134,-0.96533,0.00317,-0.05859;
18:42:57.144,-0.96777,0.00513,-0.04810;
18:42:57.154,-0.98169,0.02881,-0.07495;
18:42:57.164,-0.99756,0.05933,-0.10742;
18:42:57.174,-0.99878,0.08447,-0.10083;
18:42:57.184,-1.00317,0.09375,-0.08594;
18:42:57.194,-1.00757,0.08838,-0.08740;
18:42:57.204,-1.01611,0.07446,-0.08838;
18:42:57.214,-1.04785,0.06372,-0.07617;
18:42:57.224,-1.07837,0.06372,-0.06982;
18:42:57.234,-1.08423,0.06201,-0.07227;
18:42:57.244,-1.08228,0.05054,-0.08203;
18:42:57.254,-1.09839,0.05054,-0.08228;
18:42:57.264,-1.11963,0.05371,-0.06079;
18:42:57.274,-1.14893,0.04126,-0.03564;
18:42:57.284,-1.20435,0.02881,-0.00757;
18:42:57.294,-1.26294,0.00952,0.04761;
18:42:57.304,-1.30762,-0.01953,0.11304;
18:42:57.314,-1.35327,-0.03906,0.16309;
18:42:57.324,-1.37915,-0.01538,0.20068;
18:42:57.334,-1.38745,0.04932,0.24023;
18:42:57.344,-1.43555,0.13599,0.22144;
18:42:57.354,-1.56177,0.25854,0.10229;
18:42:57.364,-1.74951,0.44458,-0.03003;
18:42:57.374,-1.92969,0.67065,-0.05127;
18:42:57.384,-2.09912,0.92432,0.07251;
18:42:57.394,-2.32104,1.22607,0.23145;
18:42:57.404,-2.58276,1.51611,0.23901;
18:42:57.414,-2.78833,1.58838,0.06616;
18:42:57.424,-2.73315,1.11499,-0.18604;
18:42:57.434,-2.33887,0.10522,-0.36548;
18:42:57.444,-2.04688,-0.39014,-0.69434;
18:42:57.454,-1.87744,-0.18286,-0.91748;
18:42:57.464,-1.56934,-0.05176,-0.73730;
18:42:57.474,-1.15259,-0.43213,-0.30396;
18:42:57.484,-0.84521,-0.79272,-0.09082;
18:42:57.494,-0.71167,-0.88184,0.27466;
18:42:57.504,-0.79663,-0.05054,0.16943;
18:42:57.514,-0.90576,0.87817,-0.31885;
18:42:57.524,0.48267,1.51636,-0.15649;
18:42:57.534,0.05054,0.60889,-0.19971;
18:42:57.544,-0.21802,0.04614,-0.14600;
18:42:57.554,-0.14307,0.00293,-0.09521;
18:42:57.564,-0.14014,0.10986,-0.17334;
18:42:57.574,-0.20215,0.28003,-0.32593;
18:42:57.584,-0.25513,0.27930,-0.30591;
18:42:57.594,-0.32227,0.20435,-0.23315;
18:42:57.604,-0.39990,0.21875,-0.28418;
18:42:57.614,-0.47461,0.26563,-0.26953;
18:42:57.624,-0.69409,-0.10889,-0.33496;
18:42:57.634,-0.92163,-0.05151,-0.25366;
18:42:57.644,-1.08521,-0.00220,-0.22974;
18:42:57.654,-1.30713,-0.05469,-0.22998;
18:42:57.664,-1.45483,-0.11304,-0.21899;
18:42:57.674,-1.59155,-0.17676,-0.23657;
18:42:57.684,-1.74902,-0.24658,-0.31250;
18:42:57.694,-1.99951,-0.41846,-0.31299;
18:42:57.704,-2.15259,-0.37329,-0.29395;
18:42:57.714,-2.39966,-0.46216,-0.43359;
18:42:57.724,-2.75317,-0.77808,-0.58887;
18:42:57.734,-2.64478,-0.92847,-0.65308;
18:42:57.744,-2.54395,-1.20752,-0.85889;
18:42:57.754,-2.47656,-1.76636,-1.02783;
18:42:57.764,-1.91797,-2.46216,-0.49683;
18:42:57.774,-1.50610,-3.09351,0.03076;
18:42:57.784,-1.40186,-3.14600,-0.15381;
18:42:57.794,-1.45825,-2.56396,-0.42212;
18:42:57.804,-1.47607,-2.01782,-0.19751;
18:42:57.814,-1.00830,1.89209,1.05664;
18:42:57.824,-0.51953,3.05957,0.58545;
18:42:57.834,-1.23706,0.72852,0.33472;
18:42:57.844,-2.36743,-0.99292,0.39185;
18:42:57.854,-3.04712,-0.65625,0.31030;
18:42:57.864,-2.53174,-0.13208,0.46045;
18:42:57.874,-1.48242,-0.23340,0.28760;
18:42:57.884,-0.80176,-0.31226,0.03662;
18:42:57.894,-0.45605,0.10181,-0.26855;
18:42:57.904,-0.49805,0.18921,-0.40869;
18:42:57.914,-0.91309,-0.22632,-0.18066;
18:42:57.924,-1.10620,-0.25342,0.02759;
18:42:57.934,-1.18164,-0.11011,0.19849;
18:42:57.944,-1.27563,-0.13159,0.18188;
18:42:57.954,-1.04419,-0.07495,-0.01221;
18:42:57.964,-0.93555,-0.08154,-0.09546;
18:42:57.974,-1.05591,-0.02100,-0.07031;
18:42:57.984,-1.05713,0.04932,-0.03931;
18:42:57.994,-1.05225,0.06104,-0.02222;
18:42:58.004,-1.06641,0.06470,-0.04565;
18:42:58.014,-1.04883,0.09082,-0.08350;
18:42:58.024,-1.02344,0.07104,-0.10522;
18:42:58.034,-0.97241,0.00391,-0.11255;
18:42:58.044,-0.95679,-0.02734,-0.09546;
18:42:58.054,-0.95996,-0.01880,-0.08594;
18:42:58.064,-0.95337,-0.01001,-0.09131;
18:42:58.074,-0.95117,0.00024,-0.08960;
18:42:58.084,-0.96021,0.01294,-0.09204;
18:42:58.094,-0.97705,0.01489,-0.09253;
18:42:58.104,-0.97241,0.00366,-0.08057;
18:42:58.114,-0.95605,-0.01172,-0.06104;
18:42:58.124,-0.95239,-0.02344,-0.05029;
18:42:58.134,-0.95264,-0.02490,-0.06714;
18:42:58.144,-0.95728,-0.03296,-0.09912;
18:42:58.154,-0.96704,-0.03003,-0.11597;
18:42:58.164,-0.99194,-0.01611,-0.12500;
18:42:58.174,-0.99829,-0.01392,-0.12695;
18:42:58.184,-0.97632,0.06030,-0.09448;
18:42:58.194,-1.08276,0.04956,-0.00171;
18:42:58.204,-1.17090,0.05029,-0.03101;
18:42:58.214,-1.17822,0.06567,-0.03076;
18:42:58.224,-1.21777,0.08008,-0.01758;
18:42:58.234,-1.25537,0.08447,-0.00415;
18:42:58.244,-1.30835,0.05737,0.02271;
18:42:58.254,-1.37500,0.01514,0.08008;
18:42:58.264,-1.41553,-0.00269,0.14160;
18:42:58.274,-1.42798,-0.00342,0.22266;
18:42:58.284,-1.42432,0.03442,0.27222;
18:42:58.294,-1.49487,0.15063,0.19775;
18:42:58.304,-1.64429,0.33569,0.09058;
18:42:58.314,-1.84570,0.53296,0.00244;
18:42:58.324,-1.66211,0.28149,-0.81812;
18:42:58.334,-1.00879,-0.56738,-0.33057;
18:42:58.344,-0.82275,-1.06909,-0.03052;
18:42:58.354,-0.75952,-0.75513,0.17334;
18:42:58.364,-0.93921,0.00464,-0.01807;
18:42:58.374,-0.78418,0.84375,-0.36719;
18:42:58.384,0.03076,1.73682,-0.34204;
18:42:58.394,0.55469,2.00513,-0.17432;
18:42:58.404,0.44629,1.39014,-0.09009;
18:42:58.414,-0.05396,0.57373,-0.20044;
18:42:58.424,-0.20508,0.12305,-0.20068;
18:42:58.434,-0.05444,0.03101,-0.15649;
18:42:58.444,-0.04126,0.03589,-0.18726;
18:42:58.454,-0.17651,0.14551,-0.27734;
18:42:58.464,-0.25293,0.25122,-0.31421;
18:42:58.474,-0.28564,0.25854,-0.22827;
18:42:58.484,-0.37646,0.25562,-0.21704;
18:42:58.494,-0.47559,0.29248,-0.24512;
18:42:58.504,-0.57275,0.24829,-0.20068;
18:42:58.514,-0.69849,0.09180,-0.19482;
18:42:58.524,-0.82104,-0.03955,-0.22998;
18:42:58.534,-0.90576,-0.06836,-0.23267;
18:42:58.544,-0.97339,-0.02417,-0.19971;
18:42:58.554,-1.06396,0.01440,-0.15186;
18:42:58.564,-1.32202,-0.01733,-0.13208;
18:42:58.574,-1.47559,-0.08325,-0.11304;
18:42:58.584,-1.65332,-0.17725,-0.10791;
18:42:58.594,-1.86646,-0.33569,-0.11646;
18:42:58.604,-2.29565,-0.52930,-0.05737;
18:42:58.614,-2.55981,-0.59399,-0.14258;
18:42:58.624,-2.82568,-0.81104,-0.21558;
18:42:58.634,-2.75757,-0.95361,-0.89185;
18:42:58.644,-2.44946,-2.43823,-0.59326;
18:42:58.654,-1.42993,-3.15259,-0.38989;
18:42:58.664,-1.75586,-1.46509,-0.16943;
18:42:58.674,-1.21826,-0.11060,0.49194;
18:42:58.684,-0.72266,1.58911,0.96240;
18:42:58.694,-1.32617,1.38525,0.91748;
18:42:58.704,-2.05762,-0.16431,0.07324;
18:42:58.714,-2.59473,-0.50415,-0.38013;
18:42:58.724,-2.57397,-0.39600,0.13892;
18:42:58.734,-2.01685,-0.36475,0.54028;
18:42:58.744,-1.00269,-0.05981,0.37231;
18:42:58.754,-0.23169,0.03882,-0.19824;
18:42:58.764,-0.38135,-0.27295,-0.54712;
18:42:58.774,-0.78003,-0.35669,-0.38379;
18:42:58.784,-1.14844,-0.16772,0.05396;
18:42:58.794,-0.98120,-0.00903,-0.05566;
18:42:58.804,-1.11035,-0.00146,-0.02515;
18:42:58.814,-1.03198,0.03564,-0.08765;
18:42:58.824,-1.00928,0.08008,-0.12720;
18:42:58.834,-0.99976,0.07959,-0.12866;
18:42:58.844,-0.99146,0.04419,-0.08618;
18:42:58.854,-0.98682,0.00562,-0.03198;
18:42:58.864,-1.00537,0.01074,-0.00928;
18:42:58.874,-1.01074,0.03857,-0.02930;
18:42:58.884,-0.98999,0.05225,-0.06470;
18:42:58.894,-0.98511,0.06470,-0.09082;
18:42:58.904,-0.96899,0.07056,-0.09668;
18:42:58.914,-0.96021,0.06812,-0.08496;
18:42:58.924,-0.96484,0.06372,-0.06982;
18:42:58.934,-0.96680,0.05322,-0.07422;
18:42:58.944,-0.95752,0.04150,-0.08838;
18:42:58.954,-0.96289,0.03735,-0.09302;
18:42:58.964,-0.96899,0.05225,-0.10254;
18:42:58.974,-0.97266,0.07886,-0.12207;
18:42:58.984,-0.99536,0.11133,-0.13306;
18:42:58.994,-1.04785,0.12573,-0.13110;
18:42:59.004,-1.08521,0.10303,-0.10791;
18:42:59.014,-1.07397,0.05420,-0.05908;
18:42:59.024,-1.06689,0.00879,-0.03882;
18:42:59.034,-1.08716,0.00781,-0.04517;
18:42:59.044,-1.12354,0.03345,-0.02002;
18:42:59.054,-1.15308,0.04126,0.01221;
18:42:59.064,-1.17847,0.03784,0.04297;
18:42:59.074,-1.23682,0.03760,0.05103;
18:42:59.084,-1.31689,0.02441,0.04956;
18:42:59.094,-1.37061,0.03101,0.07251;
18:42:59.104,-1.39966,0.03369,0.13257;
18:42:59.114,-1.40796,-0.00269,0.22656;
18:42:59.124,-1.38916,-0.02100,0.27856;
18:42:59.134,-1.43066,0.05591,0.06470;
18:42:59.144,-1.72363,0.59814,-0.12207;
18:42:59.154,-2.12915,1.15332,0.14331;
18:42:59.164,-2.58203,1.77710,0.33667;
18:42:59.174,-2.61938,1.51880,0.07861;
18:42:59.184,-2.47510,0.40723,-0.32715;
18:42:59.194,-2.13477,-0.51392,-0.28735;
18:42:59.204,-1.79907,-0.17847,-0.47607;
18:42:59.214,-1.53760,0.47217,-0.66919;
18:42:59.224,-1.37085,0.32007,-0.80981;
18:42:59.234,-1.04517,-0.43921,-0.37915;
18:42:59.244,-0.87842,-1.01489,-0.11865;
18:42:59.254,-0.78687,-1.08105,-0.09448;
18:42:59.264,-0.71826,-0.26221,-0.02979;
18:42:59.274,-0.77271,0.67773,-0.31470;
18:42:59.284,0.47168,2.17480,-0.26196;
18:42:59.294,0.54297,1.67969,-0.02051;
18:42:59.304,0.08398,0.76050,-0.12988;
18:42:59.314,-0.24414,0.05762,-0.19458;
18:42:59.324,-0.21362,-0.18555,-0.15234;
18:42:59.334,-0.13525,-0.12622,-0.13477;
18:42:59.344,-0.17310,0.14063,-0.19580;
18:42:59.354,-0.28833,0.31250,-0.20703;
18:42:59.364,-0.46973,0.25513,-0.21484;
18:42:59.374,-0.50366,0.26343,-0.20654;
18:42:59.384,-0.57007,0.22168,-0.17383;
18:42:59.394,-0.68799,0.12231,-0.20410;
18:42:59.404,-0.80249,-0.00098,-0.22681;
18:42:59.414,-0.86377,-0.07324,-0.21997;
18:42:59.424,-0.91577,-0.03101,-0.19336;
18:42:59.434,-1.00171,0.06934,-0.16602;
18:42:59.444,-1.12549,0.13086,-0.15381;
18:42:59.454,-1.45581,0.09326,-0.16479;
18:42:59.464,-1.80200,-0.06104,-0.17822;
18:42:59.474,-2.00879,-0.20605,-0.19165;
18:42:59.484,-2.30347,-0.34497,-0.20142;
18:42:59.494,-2.68970,-0.45459,-0.22729;
18:42:59.504,-3.05298,-0.54395,-0.34277;
18:42:59.514,-3.12280,-0.75781,-0.54395;
18:42:59.524,-2.76709,-1.28125,-0.93628;
18:42:59.534,-2.20850,-1.82764,-1.01660;
18:42:59.544,-1.87427,-2.36353,-0.08862;
18:42:59.554,-1.84521,-3.14331,0.48071;
18:42:59.564,-1.47144,-3.41309,-0.01831;
18:42:59.574,-1.20361,-2.72192,-0.51196;
18:42:59.584,-1.42236,-1.94385,-0.31421;
18:42:59.594,-1.52588,-1.57837,-0.01270;
18:42:59.604,-1.51392,-0.66333,0.40161;
18:42:59.614,-0.92920,2.09473,1.59497;
18:42:59.624,-0.60889,3.18188,1.34741;
18:42:59.634,-1.40674,0.63647,0.28662;
18:42:59.644,-2.67554,-1.10303,-0.38257;
18:42:59.654,-3.26221,-0.83521,-0.01025;
18:42:59.664,-2.70776,-0.33838,0.61523;
18:42:59.674,0.13550,0.08594,-0.55688;
18:42:59.684,-1.04028,-0.20239,-0.15112;
18:42:59.694,-1.18286,-0.05859,0.16870;
18:42:59.704,-1.21484,-0.04614,0.11548;
18:42:59.714,-0.93604,-0.11670,-0.15796;
18:42:59.724,-0.90186,-0.09375,-0.11450;
18:42:59.734,-1.05420,-0.03345,-0.09277;
18:42:59.744,-1.04590,-0.01318,-0.04956;
18:42:59.754,-1.02393,0.00513,-0.05127;
18:42:59.764,-1.04199,0.02808,-0.08911;
18:42:59.774,-1.04321,0.05859,-0.13013;
18:42:59.784,-1.01611,0.05347,-0.13281;
18:42:59.794,-1.00391,0.01807,-0.10864;
18:42:59.804,-1.00317,-0.00146,-0.08618;
18:42:59.814,-0.99414,-0.00977,-0.08228;
18:42:59.824,-0.98145,-0.01758,-0.08765;
18:42:59.834,-0.98071,-0.01514,-0.11011;
18:42:59.844,-0.96167,0.01025,-0.13208;
18:42:59.854,-0.95313,0.03564,-0.14185;
18:42:59.864,-0.96143,0.03735,-0.13110;
18:42:59.874,-0.96680,0.02759,-0.10449;
18:42:59.884,-0.97119,0.01538,-0.08447;
18:42:59.894,-0.98218,0.01025,-0.08228;
18:42:59.904,-0.98950,0.01538,-0.08545;
18:42:59.914,-1.00464,0.02832,-0.09644;
18:42:59.924,-1.01489,0.05151,-0.14941;
18:42:59.934,-1.00684,0.07446,-0.18091;
18:42:59.944,-1.01587,0.07178,-0.16187;
18:42:59.954,-1.02686,0.05029,-0.15796;
18:42:59.964,-1.03101,0.02832,-0.12671;
18:42:59.974,-1.06641,0.00342,-0.09473;
18:42:59.984,-1.15381,0.00171,-0.01099;
18:42:59.994,-1.17383,0.02148,0.01563;
18:43:00.004,-1.22729,0.02734,0.00366;
18:43:00.014,-1.27759,0.02466,-0.00024;
18:43:00.024,-1.31055,0.00757,0.02490;
18:43:00.034,-1.37305,-0.00659,0.06543;
18:43:00.044,-1.39209,-0.00269,0.13110;
18:43:00.054,-1.44604,0.03931,0.16162;
18:43:00.064,-1.58911,0.15576,0.02466;
18:43:00.074,-1.77710,0.39868,-0.14404;
18:43:00.084,-1.99634,0.63721,-0.19360;
18:43:00.094,-2.17065,0.83374,-0.12817;
18:43:00.104,-2.35742,1.09717,0.00879;
18:43:00.114,-2.58545,1.46484,0.12622;
18:43:00.124,-2.78882,1.77173,0.16846;
18:43:00.134,-2.78589,1.65186,0.07080;
18:43:00.144,-2.53882,0.65430,-0.16553;
18:43:00.154,-2.09326,-0.30811,-0.26147;
18:43:00.164,-1.71118,-0.15527,-0.44092;
18:43:00.174,-1.39014,0.46582,-0.41846;
18:43:00.184,-1.19629,0.26978,-0.58716;
18:43:00.194,-0.93384,-0.68115,-0.33447;
18:43:00.204,-0.79785,-1.24023,-0.15234;
18:43:00.214,-0.67285,-0.94141,0.02466;
18:43:00.224,-0.64746,0.07568,0.11182;
18:43:00.234,-0.58008,0.99756,-0.18335;
18:43:00.244,0.52466,2.02710,0.15234;
18:43:00.254,-0.25757,0.13354,-0.11011;
18:43:00.264,-0.14478,-0.08936,-0.03662;
18:43:00.274,-0.32422,0.27905,-0.07178;
18:43:00.284,-0.42529,0.32275,-0.01904;
18:43:00.294,-0.51416,0.26416,0.03442;
18:43:00.304,-0.58521,0.18188,0.01929;
18:43:00.314,-0.66284,0.09717,-0.01392;
18:43:00.324,-0.75220,0.01172,-0.01904;
18:43:00.334,-0.84595,-0.05371,0.01563;
18:43:00.344,-0.92456,-0.07349,0.05957;
18:43:00.354,-0.99829,-0.04614,0.08813;
18:43:00.364,-1.08740,0.01001,0.08667;
18:43:00.374,-1.37573,-0.01392,0.07080;
18:43:00.384,-1.58618,-0.14526,0.09326;
18:43:00.394,-1.95068,-0.36719,0.13428;
18:43:00.404,-2.13818,-0.47925,0.09253;
18:43:00.414,-2.43604,-0.56274,-0.01294;
18:43:00.424,-2.78467,-0.66772,-0.10522;
18:43:00.434,-2.96191,-0.86548,-0.27344;
18:43:00.444,-2.76294,-1.15210,-0.63940;
18:43:00.454,-2.37305,-1.49927,-0.90820;
18:43:00.464,-1.96655,-1.99927,-0.55444;
18:43:00.474,-1.76050,-2.73926,0.04883;
18:43:00.484,-1.58521,-3.21606,-0.03638;
18:43:00.494,-1.26855,-2.86694,-0.37695;
18:43:00.504,-1.33667,-2.16553,-0.27515;
18:43:00.514,-1.71460,-1.25439,0.09595;
18:43:00.524,-1.31128,0.69507,0.47192;
18:43:00.534,-0.64087,2.23462,0.80933;
18:43:00.544,-1.26538,1.10083,0.44507;
18:43:00.554,-2.11743,-0.46191,-0.16162;
18:43:00.564,-2.40430,-0.49902,-0.01343;
18:43:00.574,-2.36401,-0.18701,0.20874;
18:43:00.584,-1.64795,-0.11646,0.22705;
18:43:00.594,-1.12280,-0.34790,-0.04663;
18:43:00.604,-0.74634,-0.16357,-0.11646;
18:43:00.614,-0.52539,0.00391,-0.29346;
18:43:00.624,-0.77173,-0.33838,-0.42749;
18:43:00.634,-0.93823,-0.18481,-0.10522;
18:43:00.644,-1.04370,0.13623,0.01318;
18:43:00.654,-1.23071,0.00464,0.17725;
18:43:00.664,-0.89087,-0.05615,-0.12109;
18:43:00.674,-1.02881,0.00244,-0.08057;
18:43:00.684,-1.06226,0.03540,-0.06372;
18:43:00.694,-1.02734,0.05127,-0.07178;
18:43:00.704,-1.01758,0.07300,-0.10645;
18:43:00.714,-1.02295,0.10254,-0.13428;
18:43:00.724,-1.02295,0.10376,-0.14746;
18:43:00.734,-1.00000,0.04932,-0.13721;
18:43:00.744,-1.00073,0.00269,-0.12256;
18:43:00.754,-0.98438,-0.01636,-0.11597;
18:43:00.764,-0.97681,-0.00781,-0.10889;
18:43:00.774,-0.96118,0.07373,-0.11792;
18:43:00.784,-0.97876,0.07983,-0.13867;
18:43:00.794,-0.97607,0.03784,-0.13550;
18:43:00.804,-0.97900,0.04077,-0.12964;
18:43:00.814,-0.98389,0.06299,-0.12036;
18:43:00.824,-0.99878,0.08936,-0.12695;
18:43:00.834,-1.00391,0.11621,-0.14722;
18:43:00.844,-0.99951,0.14014,-0.15259;
18:43:00.854,-0.99414,0.16748,-0.14380;
18:43:00.864,-0.99243,0.15845,-0.15015;
18:43:00.874,-1.01685,0.13745,-0.18311;
18:43:00.884,-1.05005,0.11499,-0.19238;
18:43:00.894,-1.03809,0.01782,-0.18359;
18:43:00.904,-1.05347,0.04858,-0.20337;
18:43:00.914,-1.13330,0.06958,-0.10889;
18:43:00.924,-1.17236,0.07642,-0.05859;
18:43:00.934,-1.21265,0.04468,-0.00757;
18:43:00.944,-1.26465,0.01074,0.04565;
18:43:00.954,-1.28760,-0.00586,0.06152;
18:43:00.964,-1.29443,-0.03125,0.10767;
18:43:00.974,-1.30566,-0.04395,0.11841;
18:43:00.984,-1.31152,-0.03955,0.14014;
18:43:00.994,-1.32788,-0.00220,0.10913;
18:43:01.004,-1.41797,0.10303,-0.04150;
18:43:01.014,-1.56396,0.29565,-0.19702;
18:43:01.024,-1.71118,0.49658,-0.27734;
18:43:01.034,-1.84180,0.67969,-0.23657;
18:43:01.044,-2.01904,0.88940,-0.11523;
18:43:01.054,-2.23975,1.13281,0.05762;
18:43:01.064,-2.46973,1.41382,0.22021;
18:43:01.074,-2.65527,1.56982,0.21509;
18:43:01.084,-2.65356,1.12061,-0.03271;
18:43:01.094,-2.31860,-0.01294,-0.04297;
18:43:01.104,-1.90576,-0.44507,-0.19434;
18:43:01.114,-1.67676,0.05298,-0.41675;
18:43:01.124,-1.52295,0.33032,-0.60620;
18:43:01.134,-1.24854,-0.15771,-0.55151;
18:43:01.144,-0.86938,-0.79150,-0.20728;
18:43:01.154,-0.76270,-1.21924,-0.02490;
18:43:01.164,-0.71045,-0.76343,0.28125;
18:43:01.174,-0.80029,0.46094,0.02686;
18:43:01.184,-0.51318,1.53418,-0.23633;
18:43:01.194,0.18262,1.12988,0.00732;
18:43:01.204,-0.27954,0.25586,-0.08911;
18:43:01.214,-0.32446,-0.09766,0.01953;
18:43:01.224,-0.23193,-0.04858,0.03931;
18:43:01.234,-0.23071,0.18701,-0.02661;
18:43:01.244,-0.30835,0.37988,-0.09521;
18:43:01.254,-0.39014,0.39795,-0.11157;
18:43:01.264,-0.45239,0.28638,-0.09424;
18:43:01.274,-0.50342,0.19653,-0.10034;
18:43:01.284,-0.56567,0.17993,-0.11572;
18:43:01.294,-0.67798,0.15063,-0.12183;
18:43:01.304,-0.82495,0.06470,-0.12744;
18:43:01.314,-0.96973,0.01172,-0.12231;
18:43:01.324,-1.25220,0.02417,-0.10498;
18:43:01.334,-1.53223,-0.09741,-0.07007;
18:43:01.344,-1.67163,-0.19214,-0.07227;
18:43:01.354,-1.81445,-0.30029,-0.06860;
18:43:01.364,-1.98975,-0.37695,-0.07202;
18:43:01.374,-2.22729,-0.42847,-0.12549;
18:43:01.384,-2.54688,-0.54272,-0.17969;
18:43:01.394,-2.79126,-0.71216,-0.24536;
18:43:01.404,-2.78760,-0.91162,-0.47412;
18:43:01.414,-2.59106,-1.36304,-0.89111;
18:43:01.424,-2.15039,-1.96802,-0.85425;
18:43:01.434,-1.74878,-2.63428,-0.02466;
18:43:01.444,-1.67261,-3.26709,0.31689;
18:43:01.454,-1.45508,-3.09473,-0.15527;
18:43:01.464,-1.83521,-2.02563,-0.42212;
18:43:01.474,-1.65942,-1.53149,0.14307;
18:43:01.484,-0.68530,0.34790,0.50464;
18:43:01.494,-0.84033,1.91211,0.38379;
18:43:01.504,-2.63208,-0.27490,0.21167;
18:43:01.514,-2.37500,-0.19385,0.56812;
18:43:01.524,-1.55005,-0.19507,0.37305;
18:43:01.534,-0.85156,-0.07397,-0.22729;
18:43:01.544,-0.52979,0.01929,-0.26563;
18:43:01.554,-0.52197,-0.14453,-0.33936;
18:43:01.564,-0.68677,-0.27368,-0.41968;
18:43:01.574,-0.98633,-0.10791,-0.03247;
18:43:01.584,-1.26685,-0.00146,0.05737;
18:43:01.594,-1.07617,-0.06909,-0.04224;
18:43:01.604,-0.94336,-0.05908,-0.12573;
18:43:01.614,-1.00537,-0.02539,-0.09204;
18:43:01.624,-1.06323,0.01831,-0.02197;
18:43:01.634,-1.05225,0.00488,-0.01001;
18:43:01.644,-1.06494,0.04053,-0.02856;
18:43:01.654,-1.05811,0.06689,-0.09399;
18:43:01.664,-1.02417,0.07227,-0.14258;
18:43:01.674,-1.00195,0.02832,-0.16431;
18:43:01.684,-0.98022,-0.03027,-0.14624;
18:43:01.694,-0.95239,-0.06519,-0.12061;
18:43:01.704,-0.96094,-0.05225,-0.10962;
18:43:01.714,-0.97070,-0.02051,-0.11401;
18:43:01.724,-0.96191,-0.00073,-0.11890;
18:43:01.734,-0.97510,0.02588,-0.10913;
18:43:01.744,-0.98169,0.03662,-0.10156;
18:43:01.754,-0.98145,0.02441,-0.09839;
18:43:01.764,-0.97461,0.01489,-0.09595;
18:43:01.774,-0.98340,0.01123,-0.11719;
18:43:01.784,-0.97534,0.00439,-0.12524;
18:43:01.794,-0.97705,0.00000,-0.13721;
18:43:01.804,-0.98169,-0.01880,-0.13013;
18:43:01.814,-0.98511,-0.02759,-0.12695;
18:43:01.824,-0.99976,-0.00562,-0.14404;
18:43:01.834,-1.01050,0.02246,-0.14600;
18:43:01.844,-1.01904,-0.00781,-0.09790;
18:43:01.854,-1.11597,-0.01172,-0.05103;
18:43:01.864,-1.12085,0.05273,-0.07300;
18:43:01.874,-1.22217,0.06201,-0.08496;
18:43:01.884,-1.25171,0.03809,-0.05688;
18:43:01.894,-1.26147,0.00537,-0.00220;
18:43:01.904,-1.29321,-0.03198,0.05688;
18:43:01.914,-1.30786,-0.04883,0.09424;
18:43:01.924,-1.33252,-0.01636,0.07202;
18:43:01.934,-1.44043,0.09106,-0.01465;
18:43:01.944,-1.58325,0.23315,-0.12842;
18:43:01.954,-1.72168,0.39307,-0.21094;
18:43:01.964,-1.84229,0.54663,-0.18384;
18:43:01.974,-1.96802,0.72266,-0.04199;
18:43:01.984,-2.13867,0.93530,0.11499;
18:43:01.994,-2.34229,1.22632,0.22534;
18:43:02.004,-2.56006,1.53076,0.21216;
