time,acc_x,acc_y,acc_z
19:43:15.939,-1.00464,-0.12134,-0.02661;
19:43:15.949,-1.00854,-0.12695,-0.02173;
19:43:15.959,-0.99292,-0.13330,-0.02441;
19:43:15.969,-0.96826,-0.15527,-0.03687;
19:43:15.979,-0.96704,-0.15234,-0.05566;
19:43:15.989,-0.98730,-0.11108,-0.05444;
19:43:15.999,-1.00537,-0.07227,-0.04541;
19:43:16.009,-1.02905,-0.07910,-0.04834;
19:43:16.019,-1.03857,-0.08472,-0.06055;
19:43:16.029,-1.01855,-0.07031,-0.06641;
19:43:16.039,-0.99585,-0.08276,-0.05347;
19:43:16.049,-0.98364,-0.10352,-0.03345;
19:43:16.059,-0.99023,-0.09570,-0.02295;
19:43:16.069,-1.00635,-0.07788,-0.03662;
19:43:16.079,-1.00781,-0.05713,-0.05542;
19:43:16.089,-1.00049,-0.04785,-0.05371;
19:43:16.099,-0.99585,-0.06396,-0.04175;
19:43:16.109,-0.99292,-0.07617,-0.03516;
19:43:16.119,-0.99658,-0.05493,-0.05249;
19:43:16.129,-1.00317,-0.00977,-0.07422;
19:43:16.139,-1.00757,0.00781,-0.07178;
19:43:16.149,-1.00732,0.01563,-0.06519;
19:43:16.159,-1.01514,0.01880,-0.05591;
19:43:16.169,-1.02344,-0.00342,-0.05151;
19:43:16.179,-1.00806,-0.02710,-0.05444;
19:43:16.189,-0.99805,-0.03174,-0.04468;
19:43:16.199,-1.00220,-0.02393,-0.03711;
19:43:16.209,-0.99756,-0.01611,-0.04663;
19:43:16.219,-1.00293,-0.02368,-0.05908;
19:43:16.229,-1.00708,-0.03027,-0.06494;
19:43:16.239,-0.99683,-0.00098,-0.07935;
19:43:16.249,-0.99170,0.03979,-0.09204;
19:43:16.259,-1.01050,0.03320,-0.07715;
19:43:16.269,-1.02759,0.01343,-0.06714;
19:43:16.279,-1.02026,0.00562,-0.06958;
19:43:16.289,-1.01245,-0.01563,-0.06372;
19:43:16.299,-0.99805,-0.02466,-0.05347;
19:43:16.309,-0.98438,-0.00830,-0.06201;
19:43:16.319,-0.99072,0.02246,-0.06958;
19:43:16.329,-1.00049,0.03882,-0.06763;
19:43:16.339,-0.99927,0.03296,-0.05078;
19:43:16.349,-1.00488,0.01758,-0.03516;
19:43:16.359,-1.01196,0.02612,-0.03442;
19:43:16.369,-1.01855,0.05469,-0.03613;
19:43:16.379,-1.01587,0.09863,-0.05469;
19:43:16.389,-1.00317,0.06592,-0.01563;
19:43:16.399,-0.99463,0.09814,0.01172;
19:43:16.409,-1.00562,0.09741,-0.03589;
19:43:16.419,-1.00562,0.03394,-0.03003;
19:43:16.429,-0.97729,0.05713,-0.04712;
19:43:16.439,-1.00439,0.09277,-0.06641;
19:43:16.449,-1.01270,0.09937,-0.04272;
19:43:16.459,-1.01611,0.04541,-0.02539;
19:43:16.469,-1.01294,-0.00439,-0.02197;
19:43:16.479,-1.00049,-0.00220,-0.01855;
19:43:16.489,-0.98608,0.01514,-0.01343;
19:43:16.499,-0.98218,0.03931,-0.02344;
19:43:16.509,-0.99585,0.06250,-0.03369;
19:43:16.519,-1.01489,0.06763,-0.02002;
19:43:16.529,-1.02295,0.04224,-0.00439;
19:43:16.539,-1.00903,0.04199,-0.01660;
19:43:16.549,-0.99390,0.08057,-0.04199;
19:43:16.559,-0.99878,0.07446,-0.04712;
19:43:16.569,-0.99854,0.03735,-0.03833;
19:43:16.579,-0.99707,0.03271,-0.03662;
19:43:16.589,-0.99805,0.03662,-0.02710;
19:43:16.599,-0.99854,0.02637,-0.01563;
19:43:16.609,-1.00269,0.02710,-0.01416;
19:43:16.619,-1.00879,0.04858,-0.01465;
19:43:16.629,-1.01831,0.06030,-0.01489;
19:43:16.639,-1.02124,0.05347,-0.01074;
19:43:16.649,-1.02075,0.05591,-0.01343;
19:43:16.659,-1.02148,0.07690,-0.00952;
19:43:16.669,-1.01709,0.06494,-0.01660;
19:43:16.679,-1.00610,0.03174,-0.03296;
19:43:16.689,-0.99634,0.02734,-0.03149;
19:43:16.699,-0.99341,0.03003,-0.02637;
19:43:16.709,-0.99707,0.04126,-0.03833;
19:43:16.719,-1.00830,0.05151,-0.04272;
19:43:16.729,-1.00732,0.04736,-0.03223;
19:43:16.739,-0.99292,0.04297,-0.01465;
19:43:16.749,-0.99463,0.04639,-0.00781;
19:43:16.759,-0.99927,0.05273,-0.01367;
19:43:16.769,-1.00293,0.06030,-0.02417;
19:43:16.779,-1.00317,0.07959,-0.04004;
19:43:16.789,-1.00391,0.09985,-0.05493;
19:43:16.799,-1.00635,0.08740,-0.07056;
19:43:16.809,-0.99756,0.06030,-0.06152;
19:43:16.819,-0.99292,0.04541,-0.04663;
19:43:16.829,-0.99438,0.03467,-0.04077;
19:43:16.839,-0.99658,0.04126,-0.03784;
19:43:16.849,-1.00317,0.06250,-0.03198;
19:43:16.859,-1.00269,0.06079,-0.02710;
19:43:16.869,-0.99756,0.05273,-0.02808;
19:43:16.879,-0.99927,0.04834,-0.02930;
19:43:16.889,-1.00146,0.04590,-0.02832;
19:43:16.899,-1.00684,0.05322,-0.03027;
19:43:16.909,-1.01465,0.05615,-0.03101;
19:43:16.919,-1.02002,0.05762,-0.02319;
19:43:16.929,-1.01660,0.05933,-0.02271;
19:43:16.939,-1.01025,0.05518,-0.01831;
19:43:16.949,-1.00781,0.05591,-0.01123;
19:43:16.959,-1.00562,0.05518,-0.00854;
19:43:16.969,-1.00513,0.05615,-0.01221;
19:43:16.979,-1.00610,0.05176,-0.00464;
19:43:16.989,-1.00415,0.03394,-0.00562;
19:43:16.999,-0.99219,0.03735,-0.02686;
19:43:17.009,-0.98071,0.03516,-0.04028;
19:43:17.019,-0.98120,0.03101,-0.05518;
19:43:17.029,-0.98853,0.03882,-0.05444;
19:43:17.039,-0.99805,0.06226,-0.04688;
19:43:17.049,-1.01489,0.07495,-0.04224;
19:43:17.059,-1.02393,0.05859,-0.03809;
19:43:17.069,-1.01929,0.04688,-0.02466;
19:43:17.079,-1.01245,0.03857,-0.01685;
19:43:17.089,-1.00659,0.03711,-0.01563;
19:43:17.099,-1.00903,0.04102,-0.00366;
19:43:17.109,-1.01025,0.04297,-0.00635;
19:43:17.119,-1.00952,0.04907,-0.01318;
19:43:17.129,-1.01196,0.04712,-0.01245;
19:43:17.139,-1.00513,0.03418,0.00464;
19:43:17.149,-0.99731,0.03247,0.00171;
19:43:17.159,-0.99390,0.04102,-0.01147;
19:43:17.169,-0.99854,0.05493,-0.04102;
19:43:17.179,-1.00073,0.06763,-0.06592;
19:43:17.189,-0.99854,0.06616,-0.05176;
19:43:17.199,-0.99902,0.05835,-0.03931;
19:43:17.209,-1.00439,0.06665,-0.04492;
19:43:17.219,-1.01367,0.06445,-0.03687;
19:43:17.229,-1.01318,0.05640,-0.01611;
19:43:17.239,-1.00781,0.05127,-0.00317;
19:43:17.249,-1.00293,0.06250,-0.00781;
19:43:17.259,-0.99390,0.06665,-0.01978;
19:43:17.269,-0.99292,0.04785,-0.01367;
19:43:17.279,-1.00024,0.05078,-0.03223;
19:43:17.289,-1.00659,0.06812,-0.04272;
19:43:17.299,-1.01318,0.06909,-0.04028;
19:43:17.309,-1.01172,0.05591,-0.02173;
19:43:17.319,-1.01636,0.05151,-0.01343;
19:43:17.329,-1.00781,0.04614,-0.01514;
19:43:17.339,-0.99976,0.04175,-0.01025;
19:43:17.349,-1.00415,0.03223,-0.01636;
19:43:17.359,-1.00244,0.03369,-0.03589;
19:43:17.369,-1.00269,0.03101,-0.04272;
19:43:17.379,-0.98926,0.01758,-0.03931;
19:43:17.389,-0.98242,0.01758,-0.05298;
19:43:17.399,-0.97363,0.02490,-0.05566;
19:43:17.409,-0.96826,0.02368,-0.05151;
19:43:17.419,-0.98047,0.03418,-0.04443;
19:43:17.429,-0.99585,0.04541,-0.04712;
19:43:17.439,-1.00049,0.03418,-0.04980;
19:43:17.449,-0.99829,0.04199,-0.04126;
19:43:17.459,-1.00317,0.04517,-0.02612;
19:43:17.469,-1.00684,0.04004,-0.01904;
19:43:17.479,-1.01440,0.04346,-0.02100;
19:43:17.489,-1.01807,0.04248,-0.02271;
19:43:17.499,-1.02319,0.04834,-0.01416;
19:43:17.509,-1.02173,0.05420,-0.00854;
19:43:17.519,-1.01367,0.05859,-0.01587;
19:43:17.529,-1.00830,0.07129,-0.03198;
19:43:17.539,-1.00146,0.06616,-0.04468;
19:43:17.549,-0.99438,0.04199,-0.03442;
19:43:17.559,-0.98315,0.02759,-0.02734;
19:43:17.569,-0.98071,0.02759,-0.03369;
19:43:17.579,-0.98315,0.03247,-0.04712;
19:43:17.589,-0.98999,0.05127,-0.05542;
19:43:17.599,-0.99585,0.05957,-0.04492;
19:43:17.609,-1.00073,0.04712,-0.02979;
19:43:17.619,-1.00903,0.04541,-0.02466;
19:43:17.629,-1.01147,0.04785,-0.02783;
19:43:17.639,-1.00977,0.04419,-0.02783;
19:43:17.649,-1.00342,0.04126,-0.02026;
19:43:17.659,-1.00049,0.04468,-0.02026;
19:43:17.669,-1.00171,0.04492,-0.02930;
19:43:17.679,-1.00122,0.02734,-0.03857;
19:43:17.689,-0.99414,0.01831,-0.04663;
19:43:17.699,-0.99194,0.03101,-0.05786;
19:43:17.709,-0.99634,0.02051,-0.06274;
19:43:17.719,-0.99927,0.00513,-0.04932;
19:43:17.729,-1.00806,0.04565,-0.03882;
19:43:17.739,-1.01294,0.04419,-0.03320;
19:43:17.749,-1.00757,0.05029,-0.04883;
19:43:17.759,-1.00854,0.04810,-0.03833;
19:43:17.769,-1.01416,0.07666,-0.05640;
19:43:17.779,-0.98584,0.02295,-0.06299;
19:43:17.789,-0.97559,0.03271,-0.06958;
19:43:17.799,-1.00098,0.04126,-0.05371;
19:43:17.809,-1.00635,0.04443,-0.05933;
19:43:17.819,-1.02319,0.10327,-0.07275;
19:43:17.829,-1.03369,0.09570,-0.07568;
19:43:17.839,-1.01880,0.03906,-0.07104;
19:43:17.849,-0.99463,0.00659,-0.08008;
19:43:17.859,-0.98120,0.01123,-0.08301;
19:43:17.869,-0.98950,0.01099,-0.05566;
19:43:17.879,-1.00562,0.00464,-0.02783;
19:43:17.889,-1.01807,0.01440,-0.02710;
19:43:17.899,-1.01733,0.03174,-0.05347;
19:43:17.909,-1.00635,0.03784,-0.07813;
19:43:17.919,-0.99585,0.03149,-0.07666;
19:43:17.929,-0.99561,0.02881,-0.05615;
19:43:17.939,-1.00708,0.04639,-0.04346;
19:43:17.949,-1.01709,0.06030,-0.04004;
19:43:17.959,-1.01807,0.04932,-0.04370;
19:43:17.969,-1.01025,0.04858,-0.05713;
19:43:17.979,-1.00098,0.05664,-0.06812;
19:43:17.989,-0.99634,0.04248,-0.07617;
19:43:17.999,-0.99414,0.02441,-0.07324;
19:43:18.009,-0.99292,0.02930,-0.07300;
19:43:18.019,-0.98901,0.03857,-0.07739;
19:43:18.029,-0.99121,0.03491,-0.06470;
19:43:18.039,-1.00000,0.02856,-0.05176;
19:43:18.049,-1.00098,0.02734,-0.05151;
19:43:18.059,-0.99731,0.03906,-0.06055;
19:43:18.069,-0.99194,0.04663,-0.06934;
19:43:18.079,-0.98755,0.04199,-0.06714;
19:43:18.089,-0.98999,0.03296,-0.06323;
19:43:18.099,-0.99243,0.02808,-0.05396;
19:43:18.109,-0.99878,0.02344,-0.03979;
19:43:18.119,-1.00977,0.01367,-0.02515;
19:43:18.129,-1.01392,0.01587,-0.01904;
19:43:18.139,-1.01660,0.03809,-0.01855;
19:43:18.149,-1.01782,0.05225,-0.01563;
19:43:18.159,-1.01929,0.04810,-0.02026;
19:43:18.169,-1.01709,0.02734,-0.02783;
19:43:18.179,-1.00903,0.01685,-0.03589;
19:43:18.189,-1.00635,0.02124,-0.03931;
19:43:18.199,-0.99585,0.02246,-0.04761;
19:43:18.209,-0.98022,0.02417,-0.05371;
19:43:18.219,-0.98706,0.02466,-0.04761;
19:43:18.229,-0.99878,0.02979,-0.04248;
19:43:18.239,-0.99878,0.03882,-0.05859;
19:43:18.249,-0.98950,0.03491,-0.08252;
19:43:18.259,-0.98877,0.01416,-0.06299;
19:43:18.269,-0.99951,-0.00732,-0.03540;
19:43:18.279,-1.00708,-0.00684,-0.02002;
19:43:18.289,-1.01294,-0.00781,-0.02832;
19:43:18.299,-1.00830,-0.02588,-0.04004;
19:43:18.309,-0.99194,-0.05078,-0.01538;
19:43:18.319,-0.98584,-0.07495,0.00879;
19:43:18.329,-0.99609,-0.06250,0.02002;
19:43:18.339,-1.00830,-0.04028,0.02026;
19:43:18.349,-1.01172,-0.04468,0.03467;
19:43:18.359,-1.00830,-0.05347,0.04443;
19:43:18.369,-1.01294,-0.04468,0.03467;
19:43:18.379,-1.01538,-0.02539,0.01929;
19:43:18.389,-1.01953,-0.01538,0.01270;
19:43:18.399,-1.02783,-0.00415,0.02075;
19:43:18.409,-1.03345,-0.00342,0.02417;
19:43:18.419,-1.02441,-0.02588,0.01709;
19:43:18.429,-1.00928,-0.04932,0.01733;
19:43:18.439,-0.98853,-0.06201,0.02588;
19:43:18.449,-0.97974,-0.05591,0.02441;
19:43:18.459,-0.99512,-0.04053,0.02075;
19:43:18.469,-1.00684,-0.03662,0.02002;
19:43:18.479,-1.00562,-0.04736,0.01929;
19:43:18.489,-0.99536,-0.04980,0.01538;
19:43:18.499,-0.98853,-0.05029,0.01514;
19:43:18.509,-0.99536,-0.04883,0.01929;
19:43:18.519,-1.00684,-0.05347,0.02612;
19:43:18.529,-1.00952,-0.06372,0.02954;
19:43:18.539,-0.99829,-0.05835,0.02734;
19:43:18.549,-0.99536,-0.06079,0.02856;
19:43:18.559,-1.00488,-0.04907,0.02148;
19:43:18.569,-1.01904,-0.03784,0.01636;
19:43:18.579,-1.01929,-0.04785,0.02002;
19:43:18.589,-1.00879,-0.05566,0.02344;
19:43:18.599,-1.00659,-0.05933,0.02393;
19:43:18.609,-1.00635,-0.07446,0.01440;
19:43:18.619,-0.99805,-0.10913,0.02808;
19:43:18.629,-0.97778,-0.12573,0.04492;
19:43:18.639,-0.97852,-0.10229,0.03760;
19:43:18.649,-0.98633,-0.07324,0.02490;
19:43:18.659,-1.00073,-0.06226,0.03345;
19:43:18.669,-1.01563,-0.04443,0.04077;
19:43:18.679,-1.01807,-0.03369,0.03442;
19:43:18.689,-1.02246,-0.02954,0.03857;
19:43:18.699,-1.03345,-0.03467,0.07056;
19:43:18.709,-1.04370,-0.05786,0.09961;
19:43:18.719,-1.02905,-0.07642,0.08154;
19:43:18.729,-1.01489,-0.08667,0.05688;
19:43:18.739,-1.00000,-0.10254,0.07129;
19:43:18.749,-0.99536,-0.10718,0.04590;
19:43:18.759,-0.99463,-0.10913,0.01172;
19:43:18.769,-0.98926,-0.10864,0.01318;
19:43:18.779,-0.98755,-0.09399,0.00977;
19:43:18.789,-0.99023,-0.08789,0.02368;
19:43:18.799,-1.00049,-0.09180,0.04468;
19:43:18.809,-1.00659,-0.09253,0.07031;
19:43:18.819,-1.01563,-0.08691,0.08643;
19:43:18.829,-1.02051,-0.08984,0.09424;
19:43:18.839,-1.02026,-0.08301,0.09277;
19:43:18.849,-1.01587,-0.08008,0.08252;
19:43:18.859,-1.01001,-0.08960,0.06592;
19:43:18.869,-1.00293,-0.09082,0.05811;
19:43:18.879,-1.00317,-0.09644,0.06128;
19:43:18.889,-1.00293,-0.09937,0.06909;
19:43:18.899,-0.99414,-0.09009,0.06494;
19:43:18.909,-0.98877,-0.08179,0.05200;
19:43:18.919,-0.98999,-0.08398,0.04346;
19:43:18.929,-0.99683,-0.08887,0.03979;
19:43:18.939,-0.99756,-0.08813,0.03857;
19:43:18.949,-0.98242,-0.09302,0.03833;
19:43:18.959,-0.96362,-0.08936,0.03833;
19:43:18.969,-0.95459,-0.08643,0.03296;
19:43:18.979,-0.95068,-0.08154,0.02734;
19:43:18.989,-0.95605,-0.07495,0.02222;
19:43:18.999,-0.96558,-0.07813,0.02246;
19:43:19.009,-0.97583,-0.08105,0.02686;
19:43:19.019,-0.97632,-0.07373,0.03003;
19:43:19.029,-0.98438,-0.06006,0.03247;
19:43:19.039,-0.99951,-0.06958,0.03174;
19:43:19.049,-1.00562,-0.06982,0.03979;
19:43:19.059,-1.01733,-0.06274,0.04272;
19:43:19.069,-1.02612,-0.08496,0.04053;
19:43:19.079,-1.02661,-0.09399,0.04004;
19:43:19.089,-1.01904,-0.08594,0.03833;
19:43:19.099,-1.01196,-0.08545,0.04468;
19:43:19.109,-1.00586,-0.09326,0.08984;
19:43:19.119,-1.00513,-0.07983,0.11011;
19:43:19.129,-1.00122,-0.06226,0.09253;
19:43:19.139,-0.99902,-0.06470,0.05322;
19:43:19.149,-0.99292,-0.04004,0.03516;
19:43:19.159,-1.00415,-0.04321,0.03638;
19:43:19.169,-1.00562,-0.03198,0.03320;
19:43:19.179,-1.01782,-0.02466,0.01050;
19:43:19.189,-1.01709,-0.04565,0.00781;
19:43:19.199,-1.02148,-0.05200,-0.00195;
19:43:19.209,-1.02832,-0.04492,-0.01147;
19:43:19.219,-1.03003,-0.05249,-0.00586;
19:43:19.229,-1.02466,-0.05444,0.00366;
19:43:19.239,-1.01660,-0.04443,0.00610;
19:43:19.249,-1.00586,-0.04932,0.01318;
19:43:19.259,-0.99414,-0.06128,0.02686;
19:43:19.269,-0.98340,-0.06274,0.04614;
19:43:19.279,-0.98706,-0.05884,0.05811;
19:43:19.289,-1.00366,-0.06494,0.05640;
19:43:19.299,-1.00732,-0.06299,0.05347;
19:43:19.309,-1.00415,-0.04907,0.05322;
19:43:19.319,-1.01147,-0.06543,0.06348;
19:43:19.329,-1.02100,-0.09717,0.07397;
19:43:19.339,-1.02759,-0.09277,0.09863;
19:43:19.349,-1.03784,-0.04810,0.13525;
19:43:19.359,-1.04028,-0.06079,0.16113;
19:43:19.369,-1.01099,-0.22119,0.20020;
19:43:19.379,-0.96509,-0.36572,0.27271;
19:43:19.389,-0.93652,-0.33008,0.33911;
19:43:19.399,-0.97510,-0.34375,0.39868;
19:43:19.409,-1.04736,-0.75635,0.50464;
19:43:19.419,-1.08057,-1.20605,0.43018;
19:43:19.429,-1.07959,-1.21313,0.18652;
19:43:19.439,-1.03540,-0.94922,0.10596;
19:43:19.449,-1.01660,-0.67065,-0.01294;
19:43:19.459,-0.97852,-0.44214,-0.10278;
19:43:19.469,-0.91675,-0.18774,-0.09180;
19:43:19.479,-0.85474,0.03198,-0.26953;
19:43:19.489,-0.81787,0.10986,-0.21680;
19:43:19.499,-0.86987,0.34521,-0.03516;
19:43:19.509,-0.94775,0.34180,-0.20264;
19:43:19.519,-0.84570,0.10693,-0.14209;
19:43:19.529,-0.82471,0.17212,0.03711;
19:43:19.539,-0.85645,0.30908,0.10400;
19:43:19.549,-0.91895,0.53418,0.27881;
19:43:19.559,-0.87866,1.54956,0.37134;
19:43:19.569,-1.19409,0.29419,0.54126;
19:43:19.579,-1.41846,-1.00415,0.55151;
19:43:19.589,-1.27417,-0.45239,0.35669;
19:43:19.599,-1.07983,0.25391,0.11133;
19:43:19.609,-0.97339,0.31982,-0.07153;
19:43:19.619,-0.97729,-0.02222,-0.13379;
19:43:19.629,-0.96680,-0.19702,-0.11353;
19:43:19.639,-0.98242,-0.15356,-0.05835;
19:43:19.649,-1.00684,-0.10571,0.03491;
19:43:19.659,-1.01978,-0.17334,0.08252;
19:43:19.669,-1.08203,-0.21411,0.03638;
19:43:19.679,-1.11084,-0.12207,-0.01489;
19:43:19.689,-1.09326,-0.04468,-0.03589;
19:43:19.699,-1.04248,-0.07715,-0.05005;
19:43:19.709,-1.01172,-0.08179,-0.08472;
19:43:19.719,-1.00391,-0.06201,-0.11255;
19:43:19.729,-1.01367,-0.02588,-0.10107;
19:43:19.739,-1.03491,0.01025,-0.06128;
19:43:19.749,-1.04517,-0.00342,-0.06030;
19:43:19.759,-1.04077,-0.02002,-0.09204;
19:43:19.769,-1.02881,-0.01660,-0.12402;
19:43:19.779,-1.01465,-0.00879,-0.12695;
19:43:19.789,-1.00366,-0.00610,-0.11450;
19:43:19.799,-1.00171,-0.00928,-0.12109;
19:43:19.809,-0.99097,-0.02734,-0.15723;
19:43:19.819,-0.94653,-0.07642,-0.19653;
19:43:19.829,-0.92773,-0.13403,-0.17871;
19:43:19.839,-0.95703,-0.10498,-0.15723;
19:43:19.849,-0.99414,-0.07324,-0.11963;
19:43:19.859,-1.03052,-0.08228,-0.00122;
19:43:19.869,-1.03296,-0.06299,-0.00952;
19:43:19.879,-1.03247,-0.06299,-0.01978;
19:43:19.889,-1.02417,-0.06372,-0.03467;
19:43:19.899,-1.00562,-0.05029,-0.04321;
19:43:19.909,-0.99951,-0.03198,-0.03931;
19:43:19.919,-0.99805,-0.01367,-0.08398;
19:43:19.929,-0.96851,-0.03662,-0.16138;
19:43:19.939,-0.92310,-0.08594,-0.17480;
19:43:19.949,-0.90112,-0.12646,-0.16431;
19:43:19.959,-0.90527,-0.10229,-0.15991;
19:43:19.969,-0.95239,-0.03906,-0.11719;
19:43:19.979,-1.01538,-0.03003,-0.05811;
19:43:19.989,-1.04346,-0.02344,0.00000;
19:43:19.999,-1.04297,-0.00342,0.02515;
19:43:20.009,-1.02246,-0.00977,0.00537;
19:43:20.019,-0.98926,-0.05371,-0.02539;
19:43:20.029,-0.95483,-0.09961,-0.03247;
19:43:20.039,-0.93970,-0.07422,-0.06104;
19:43:20.049,-0.94312,-0.01172,-0.10986;
19:43:20.059,-0.96167,-0.02466,-0.10547;
19:43:20.069,-0.98657,-0.07617,-0.04785;
19:43:20.079,-1.00537,-0.09497,0.00854;
19:43:20.089,-1.01880,-0.10620,0.03320;
19:43:20.099,-1.01880,-0.07031,0.02148;
19:43:20.109,-1.00317,-0.02954,0.01538;
19:43:20.119,-0.96606,-0.08179,0.04053;
19:43:20.129,-0.92090,-0.18408,0.05298;
19:43:20.139,-0.90161,-0.22119,0.03320;
19:43:20.149,-0.93945,-0.20288,0.02002;
19:43:20.159,-1.00562,-0.12866,0.04053;
19:43:20.169,-1.04419,-0.08960,0.07202;
19:43:20.179,-1.05225,-0.11475,0.11572;
19:43:20.189,-1.02319,-0.15039,0.15430;
19:43:20.199,-0.99854,-0.19482,0.16895;
19:43:20.209,-0.98242,-0.22388,0.17676;
19:43:20.219,-0.98120,-0.23730,0.16089;
19:43:20.229,-1.00781,-0.20581,0.14990;
19:43:20.239,-1.02246,-0.15601,0.11646;
19:43:20.249,-1.03296,-0.10278,0.09619;
19:43:20.259,-1.04077,-0.07886,0.09570;
19:43:20.269,-1.07324,-0.03467,0.06201;
19:43:20.279,-1.14233,-0.01294,-0.05347;
19:43:20.289,-1.12354,-0.00366,-0.09009;
19:43:20.299,-1.09399,0.08325,-0.12695;
19:43:20.309,-1.08911,0.14600,-0.15063;
19:43:20.319,-1.21680,0.15527,-0.20361;
19:43:20.329,-1.35815,0.11255,-0.35376;
19:43:20.339,-1.56836,-0.22632,-0.70923;
19:43:20.349,-1.60010,-0.63647,-0.82275;
19:43:20.359,-1.53931,-1.13599,-0.73779;
19:43:20.369,-1.47095,-1.67749,-0.15747;
19:43:20.379,-1.56152,-2.08301,0.45850;
19:43:20.389,-1.79370,-2.18579,0.45313;
19:43:20.399,-2.00000,-2.17017,0.41406;
19:43:20.409,-2.16187,-1.96729,0.09229;
19:43:20.419,-2.01196,-1.22900,-0.15552;
19:43:20.429,-1.80859,-0.38184,-0.16577;
19:43:20.439,-1.72754,0.09424,-0.26465;
19:43:20.449,-1.50977,0.40967,-0.30054;
19:43:20.459,-1.32056,0.40747,-0.17554;
19:43:20.469,-1.15210,0.67651,-0.14380;
19:43:20.479,-0.74316,0.91431,-0.13745;
19:43:20.489,-0.96216,0.74902,0.02173;
19:43:20.499,-1.03296,0.72681,0.53662;
19:43:20.509,-1.09961,0.73022,0.71021;
19:43:20.519,-1.14233,0.66406,0.83838;
19:43:20.529,-1.17969,0.62891,0.96436;
19:43:20.539,-1.25122,0.59961,1.02051;
19:43:20.549,-1.31470,0.51880,0.98706;
19:43:20.559,-1.37793,0.47314,0.92798;
19:43:20.569,-1.43335,0.48926,0.84961;
19:43:20.579,-1.48462,0.41870,0.77368;
19:43:20.589,-1.51123,0.29468,0.75806;
19:43:20.599,-1.52930,0.14673,0.81836;
19:43:20.609,-1.54785,-0.00732,0.79663;
19:43:20.619,-1.52954,-0.07471,0.71509;
19:43:20.629,-1.50928,-0.00293,0.64941;
19:43:20.639,-1.51733,0.08691,0.59863;
19:43:20.649,-1.54150,0.04590,0.56982;
19:43:20.659,-1.54102,-0.15503,0.61768;
19:43:20.669,-1.52075,-0.46655,0.79053;
19:43:20.679,-1.48584,-0.71240,1.01514;
19:43:20.689,-1.49658,-1.12451,1.30933;
19:43:20.699,-1.41602,-1.83423,1.57764;
19:43:20.709,-1.19653,-2.30103,1.63550;
19:43:20.719,-1.03345,-2.19507,1.44702;
19:43:20.729,-0.93579,-1.85181,1.20459;
19:43:20.739,-0.88086,-1.53271,1.00439;
19:43:20.749,-1.19702,-0.94458,-0.26050;
19:43:20.759,-1.15674,0.13379,-2.25269;
19:43:20.769,-0.93970,0.72559,-2.81909;
19:43:20.779,-1.12402,0.32251,0.47095;
19:43:20.789,-3.25317,-0.62915,2.80664;
19:43:20.799,-4.36255,-0.61035,0.74805;
19:43:20.809,-1.14404,0.47754,-0.01392;
19:43:20.819,0.01343,0.92554,-0.09912;
19:43:20.829,-0.79272,-0.09839,-0.08130;
19:43:20.839,-0.77612,-0.56860,0.00024;
19:43:20.849,-0.93604,0.07056,-0.16333;
19:43:20.859,-1.05493,0.11255,-0.00220;
19:43:20.869,-1.15918,-0.20313,-0.11157;
19:43:20.879,-1.12061,-0.06030,-0.18042;
19:43:20.889,-1.13892,-0.01001,-0.14722;
19:43:20.899,-0.87134,-0.29126,-0.26489;
19:43:20.909,-0.79199,-0.26880,-0.29590;
19:43:20.919,-0.86060,-0.24951,-0.25146;
19:43:20.929,-0.90869,-0.29175,-0.23193;
19:43:20.939,-0.92456,-0.33569,-0.19604;
19:43:20.949,-0.90527,-0.26831,-0.19775;
19:43:20.959,-0.82178,-0.18726,-0.30371;
19:43:20.969,-0.75903,-0.18896,-0.43604;
19:43:20.979,-0.76831,-0.22412,-0.46265;
19:43:20.989,-0.86597,-0.26074,-0.39014;
19:43:20.999,-0.97461,-0.24243,-0.28125;
19:43:21.009,-1.03882,-0.18994,-0.20874;
19:43:21.019,-0.97607,-0.27441,-0.12109;
19:43:21.029,-0.91626,-0.32324,-0.12720;
19:43:21.039,-0.81909,-0.38550,-0.14429;
19:43:21.049,-0.74951,-0.42944,-0.15161;
19:43:21.059,-0.75464,-0.42847,-0.22656;
19:43:21.069,-0.80151,-0.38037,-0.35571;
19:43:21.079,-0.89624,-0.31738,-0.36841;
19:43:21.089,-0.99121,-0.30786,-0.25439;
19:43:21.099,-0.94849,-0.42944,-0.04785;
19:43:21.109,-0.91284,-0.48511,-0.02905;
19:43:21.119,-0.90576,-0.45215,-0.06079;
19:43:21.129,-0.90674,-0.40234,-0.10938;
19:43:21.139,-0.92358,-0.38135,-0.12476;
19:43:21.149,-0.94019,-0.37402,-0.11011;
19:43:21.159,-0.96289,-0.39575,-0.11011;
19:43:21.169,-1.00049,-0.38916,-0.13623;
19:43:21.179,-1.04272,-0.33130,-0.14453;
19:43:21.189,-1.10107,-0.28467,-0.13403;
19:43:21.199,-1.15039,-0.25952,-0.12622;
19:43:21.209,-1.17651,-0.22827,-0.12061;
19:43:21.219,-1.20166,-0.18823,-0.11499;
19:43:21.229,-1.22290,-0.19556,-0.09790;
19:43:21.239,-1.28809,-0.15234,-0.10400;
19:43:21.249,-1.34180,-0.09326,-0.14380;
19:43:21.259,-1.42554,-0.01953,-0.19434;
19:43:21.269,-1.56055,0.10449,-0.32422;
19:43:21.279,-1.78369,0.26563,-0.81567;
19:43:21.289,-1.90796,0.39185,-1.28906;
19:43:21.299,-1.88550,0.48022,-1.42871;
19:43:21.309,-1.66406,0.68799,-1.51392;
19:43:21.319,-1.34204,0.79761,-1.28125;
19:43:21.329,-1.08545,0.42017,-0.78540;
19:43:21.339,-0.79272,0.25146,-0.52588;
19:43:21.349,-0.53442,0.14551,-0.28638;
19:43:21.359,-0.42700,-0.17017,-0.05859;
19:43:21.369,-0.38599,-0.38867,0.19678;
19:43:21.379,-0.41846,-0.93823,0.29224;
19:43:21.389,-0.51440,-0.51758,0.26074;
19:43:21.399,-0.42969,0.10742,0.11963;
19:43:21.409,-0.40771,0.03149,0.00073;
19:43:21.419,-0.41333,-0.05908,0.07007;
19:43:21.429,-0.39575,-0.05298,0.20557;
19:43:21.439,-0.30859,-0.09741,0.46411;
19:43:21.449,-0.27319,-0.20044,0.83618;
19:43:21.459,-0.27783,-0.30811,1.26636;
19:43:21.469,-0.59668,-0.29053,2.18506;
19:43:21.479,-0.94214,-0.28906,1.57764;
19:43:21.489,-1.43066,0.07544,1.31885;
19:43:21.499,-2.29077,-0.17651,0.59351;
19:43:21.509,-2.71387,0.11646,-0.13794;
19:43:21.519,-2.22437,0.77661,-0.74121;
19:43:21.529,-1.56006,0.65210,-0.97852;
19:43:21.539,-1.65454,0.43872,-0.70020;
19:43:21.549,-1.70630,0.12476,-0.18970;
19:43:21.559,-1.44482,-0.15210,0.28979;
19:43:21.569,-1.15674,-0.43896,0.58130;
19:43:21.579,-0.92480,-0.66821,0.61743;
19:43:21.589,-0.70313,-0.76050,0.49365;
19:43:21.599,-0.59741,-0.72583,0.29565;
19:43:21.609,-0.55420,-0.63110,0.08325;
19:43:21.619,-0.47778,-0.58960,-0.09253;
19:43:21.629,-0.37939,-0.58936,-0.21851;
19:43:21.639,-0.34888,-0.58423,-0.31226;
19:43:21.649,-0.54688,-0.53613,-0.39233;
19:43:21.659,-0.97266,-0.38892,-0.46631;
19:43:21.669,-1.69678,-0.14063,-0.37280;
19:43:21.679,-1.68652,-0.21680,-0.18701;
19:43:21.689,-1.57227,-0.36157,-0.01880;
19:43:21.699,-1.34302,-0.47485,0.04248;
19:43:21.709,-1.11938,-0.48047,0.02417;
19:43:21.719,-0.61108,-0.59155,-0.16846;
19:43:21.729,-0.37695,-0.60596,-0.23926;
19:43:21.739,-0.63208,-0.51929,-0.13940;
19:43:21.749,-0.88989,-0.50562,-0.00513;
19:43:21.759,-1.01807,-0.56445,0.00342;
19:43:21.769,-0.97095,-0.54980,-0.18726;
19:43:21.779,-0.78149,-0.55640,-0.22998;
19:43:21.789,-0.63843,-0.61401,-0.25073;
19:43:21.799,-0.55103,-0.68384,-0.16895;
19:43:21.809,-0.60278,-0.73071,-0.06567;
19:43:21.819,-0.63550,-0.67603,-0.03125;
19:43:21.829,-0.64917,-0.65625,-0.03174;
19:43:21.839,-0.66211,-0.69214,-0.08032;
19:43:21.849,-0.68726,-0.67505,-0.13428;
19:43:21.859,-0.77197,-0.62378,-0.17920;
19:43:21.869,-0.81982,-0.63135,-0.21143;
19:43:21.879,-0.81592,-0.66675,-0.22754;
19:43:21.889,-0.65454,-0.67773,-0.24487;
19:43:21.899,-0.64063,-0.73755,-0.18018;
19:43:21.909,-0.62769,-0.72021,-0.10449;
19:43:21.919,-0.58716,-0.66479,0.03540;
19:43:21.929,-0.61035,-0.67407,0.17944;
19:43:21.939,-0.66089,-0.71387,0.23706;
19:43:21.949,-0.67944,-0.72168,0.23608;
19:43:21.959,-0.71997,-0.71191,0.19116;
19:43:21.969,-0.75635,-0.69360,0.11523;
19:43:21.979,-0.77881,-0.67310,0.03296;
19:43:21.989,-0.77344,-0.67822,-0.03589;
19:43:21.999,-0.76440,-0.70288,-0.06812;
19:43:22.009,-0.75000,-0.69678,-0.06812;
19:43:22.019,-0.71680,-0.69653,-0.05493;
19:43:22.029,-0.68042,-0.70581,-0.02417;
19:43:22.039,-0.66577,-0.68555,0.04297;
19:43:22.049,-0.67871,-0.68335,0.10229;
19:43:22.059,-0.69336,-0.70435,0.08765;
19:43:22.069,-0.69653,-0.70996,-0.00854;
19:43:22.079,-0.67798,-0.69067,-0.10669;
19:43:22.089,-0.67017,-0.68970,-0.12231;
19:43:22.099,-0.68823,-0.67358,-0.02612;
19:43:22.109,-0.73682,-0.66943,0.07666;
19:43:22.119,-0.77417,-0.70557,0.06421;
19:43:22.129,-0.76807,-0.68994,-0.00317;
19:43:22.139,-0.76514,-0.64038,-0.03223;
19:43:22.149,-0.76270,-0.64014,-0.00610;
19:43:22.159,-0.76294,-0.67725,0.03247;
19:43:22.169,-0.75537,-0.67310,0.04443;
19:43:22.179,-0.75269,-0.66357,0.02173;
19:43:22.189,-0.73389,-0.67310,-0.04053;
19:43:22.199,-0.70337,-0.65161,-0.08960;
19:43:22.209,-0.71533,-0.63550,-0.07007;
19:43:22.219,-0.74683,-0.65552,-0.00244;
19:43:22.229,-0.76929,-0.67505,0.04932;
19:43:22.239,-0.80103,-0.67310,0.04321;
19:43:22.249,-0.80786,-0.65503,0.00757;
19:43:22.259,-0.77881,-0.64526,-0.00537;
19:43:22.269,-0.77808,-0.64941,0.01538;
19:43:22.279,-0.77295,-0.66895,0.02832;
19:43:22.289,-0.75903,-0.68262,-0.00122;
19:43:22.299,-0.72803,-0.68066,-0.04248;
19:43:22.309,-0.69482,-0.66919,-0.05713;
19:43:22.319,-0.69531,-0.65356,-0.04077;
19:43:22.329,-0.69824,-0.66650,-0.02319;
19:43:22.339,-0.70557,-0.69580,-0.02954;
19:43:22.349,-0.71216,-0.71265,-0.06372;
19:43:22.359,-0.70459,-0.71484,-0.11719;
19:43:22.369,-0.69092,-0.72314,-0.18164;
19:43:22.379,-0.65796,-0.70020,-0.19141;
19:43:22.389,-0.62891,-0.69287,-0.10889;
19:43:22.399,-0.63184,-0.71069,-0.00464;
19:43:22.409,-0.63745,-0.69751,0.06030;
19:43:22.419,-0.67236,-0.70825,0.07495;
19:43:22.429,-0.69556,-0.70239,0.06201;
19:43:22.439,-0.70068,-0.68335,0.04517;
19:43:22.449,-0.73975,-0.69385,0.02734;
19:43:22.459,-0.75537,-0.70557,0.00830;
19:43:22.469,-0.74780,-0.69873,-0.02563;
19:43:22.479,-0.72021,-0.70117,-0.02197;
19:43:22.489,-0.68506,-0.70996,-0.00317;
19:43:22.499,-0.65576,-0.70923,0.02637;
19:43:22.509,-0.63940,-0.71045,0.05737;
19:43:22.519,-0.63843,-0.71704,0.06445;
19:43:22.529,-0.63989,-0.73218,0.05420;
19:43:22.539,-0.63574,-0.73657,0.02856;
19:43:22.549,-0.63965,-0.73389,0.00317;
19:43:22.559,-0.64014,-0.73022,0.00415;
19:43:22.569,-0.64233,-0.72559,0.04541;
19:43:22.579,-0.66235,-0.74316,0.08667;
19:43:22.589,-0.68042,-0.74634,0.08618;
19:43:22.599,-0.69141,-0.73096,0.05054;
19:43:22.609,-0.69653,-0.71265,0.01465;
19:43:22.619,-0.68677,-0.72046,0.00342;
19:43:22.629,-0.67163,-0.74219,-0.00024;
19:43:22.639,-0.64282,-0.74683,0.00000;
19:43:22.649,-0.61670,-0.74292,0.00415;
19:43:22.659,-0.58301,-0.73022,0.01953;
19:43:22.669,-0.54614,-0.73120,0.07104;
19:43:22.679,-0.55347,-0.74927,0.11279;
19:43:22.689,-0.57544,-0.75439,0.10376;
19:43:22.699,-0.61328,-0.73828,0.06030;
19:43:22.709,-0.66260,-0.70654,-0.00122;
19:43:22.719,-0.68921,-0.71387,-0.07983;
19:43:22.729,-0.70825,-0.74927,-0.13550;
19:43:22.739,-0.67578,-0.76733,-0.12720;
19:43:22.749,-0.59766,-0.75659,-0.06519;
19:43:22.759,-0.48242,-0.69434,0.04443;
19:43:22.769,-0.40576,-0.62256,0.26367;
19:43:22.779,-0.55444,-0.64526,0.48755;
19:43:22.789,-0.79565,-0.68945,0.54565;
19:43:22.799,-1.01294,-0.70337,0.33862;
19:43:22.809,-0.98706,-0.62598,0.19604;
19:43:22.819,-0.92700,-0.67505,0.13354;
19:43:22.829,-0.85718,-0.73901,0.12134;
19:43:22.839,-0.78711,-0.71558,0.11304;
19:43:22.849,-0.73755,-0.72803,0.10620;
19:43:22.859,-0.69482,-0.70532,0.10449;
19:43:22.869,-0.66577,-0.66675,0.12451;
19:43:22.879,-0.66553,-0.68188,0.14038;
19:43:22.889,-0.68652,-0.70435,0.13940;
19:43:22.899,-0.64111,-0.71411,0.08008;
19:43:22.909,-0.62329,-0.71997,0.02856;
19:43:22.919,-0.62695,-0.73877,-0.01807;
19:43:22.929,-0.64648,-0.73779,-0.05420;
19:43:22.939,-0.66431,-0.72900,-0.06250;
19:43:22.949,-0.67310,-0.73071,-0.04175;
19:43:22.959,-0.68213,-0.72925,-0.00391;
19:43:22.969,-0.69653,-0.72217,0.02734;
19:43:22.979,-0.69727,-0.71753,0.04614;
19:43:22.989,-0.69727,-0.71777,0.06372;
19:43:22.999,-0.69702,-0.71362,0.07813;
19:43:23.009,-0.68945,-0.69678,0.10083;
19:43:23.019,-0.67847,-0.70679,0.11279;
19:43:23.029,-0.67407,-0.70166,0.08862;
19:43:23.039,-0.69409,-0.65747,0.08618;
19:43:23.049,-0.73608,-0.64868,0.14355;
19:43:23.059,-0.76538,-0.64673,0.22607;
19:43:23.069,-0.79077,-0.65894,0.26709;
19:43:23.079,-0.80688,-0.69580,0.20972;
19:43:23.089,-0.79688,-0.70776,0.11035;
19:43:23.099,-0.76709,-0.68481,0.03589;
19:43:23.109,-0.74854,-0.67407,-0.00220;
19:43:23.119,-0.72217,-0.70386,-0.00537;
19:43:23.129,-0.67212,-0.74146,0.01416;
19:43:23.139,-0.63354,-0.74365,0.03540;
19:43:23.149,-0.59229,-0.71460,0.05176;
19:43:23.159,-0.61670,-0.72876,0.06201;
19:43:23.169,-0.60449,-0.74878,0.00708;
19:43:23.179,-0.57642,-0.72168,-0.03906;
19:43:23.189,-0.62549,-0.72217,0.11914;
19:43:23.199,-0.68896,-0.73975,0.13403;
19:43:23.209,-0.72949,-0.71069,0.02686;
19:43:23.219,-0.74292,-0.71875,0.09473;
19:43:23.229,-0.72461,-0.72949,0.13452;
19:43:23.239,-0.73730,-0.72656,0.08984;
19:43:23.249,-0.73047,-0.72412,0.04688;
19:43:23.259,-0.71802,-0.72095,0.04321;
19:43:23.269,-0.70410,-0.71851,0.07959;
19:43:23.279,-0.70044,-0.71338,0.12354;
19:43:23.289,-0.69751,-0.71118,0.13599;
19:43:23.299,-0.69141,-0.70410,0.11938;
19:43:23.309,-0.69189,-0.70117,0.10229;
19:43:23.319,-0.69238,-0.70898,0.09448;
19:43:23.329,-0.68677,-0.71826,0.09448;
19:43:23.339,-0.67944,-0.71069,0.09961;
19:43:23.349,-0.68359,-0.69458,0.11938;
19:43:23.359,-0.69238,-0.68994,0.14233;
19:43:23.369,-0.69727,-0.69165,0.14917;
19:43:23.379,-0.69824,-0.70313,0.14746;
19:43:23.389,-0.69189,-0.69287,0.13525;
19:43:23.399,-0.68286,-0.67603,0.13721;
19:43:23.409,-0.68433,-0.68237,0.13672;
19:43:23.419,-0.69507,-0.68652,0.13306;
19:43:23.429,-0.70874,-0.69116,0.12720;
19:43:23.439,-0.72388,-0.69019,0.11523;
19:43:23.449,-0.72510,-0.69580,0.10010;
19:43:23.459,-0.72290,-0.71362,0.07080;
19:43:23.469,-0.73291,-0.71509,0.02246;
19:43:23.479,-0.72241,-0.68335,0.00586;
19:43:23.489,-0.70557,-0.66772,0.05713;
19:43:23.499,-0.71362,-0.69336,0.12988;
19:43:23.509,-0.70435,-0.69434,0.17358;
19:43:23.519,-0.69751,-0.70605,0.16113;
19:43:23.529,-0.70117,-0.71875,0.09326;
19:43:23.539,-0.70044,-0.69238,0.00122;
19:43:23.549,-0.72046,-0.68945,-0.04565;
19:43:23.559,-0.72754,-0.71069,-0.03149;
19:43:23.569,-0.72388,-0.71997,0.01953;
19:43:23.579,-0.70996,-0.72241,0.07080;
19:43:23.589,-0.69995,-0.71362,0.08740;
19:43:23.599,-0.70435,-0.70410,0.07715;
19:43:23.609,-0.69971,-0.70337,0.06006;
19:43:23.619,-0.68579,-0.70825,0.05493;
19:43:23.629,-0.66797,-0.72021,0.07007;
19:43:23.639,-0.64453,-0.71655,0.09985;
19:43:23.649,-0.63794,-0.71582,0.11133;
19:43:23.659,-0.64624,-0.72314,0.11035;
19:43:23.669,-0.65283,-0.72388,0.09131;
19:43:23.679,-0.65332,-0.72607,0.07129;
19:43:23.689,-0.65527,-0.72119,0.05908;
19:43:23.699,-0.65649,-0.70947,0.05591;
19:43:23.709,-0.66113,-0.70386,0.07080;
19:43:23.719,-0.67163,-0.70752,0.09521;
19:43:23.729,-0.68408,-0.70435,0.10474;
19:43:23.739,-0.69385,-0.69385,0.09180;
19:43:23.749,-0.70410,-0.68823,0.07910;
19:43:23.759,-0.72046,-0.69165,0.07446;
19:43:23.769,-0.72778,-0.69458,0.07617;
19:43:23.779,-0.72046,-0.70483,0.06787;
19:43:23.789,-0.71240,-0.69653,0.05151;
19:43:23.799,-0.71045,-0.69116,0.03394;
19:43:23.809,-0.70142,-0.68384,0.03052;
19:43:23.819,-0.68945,-0.66504,0.06494;
19:43:23.829,-0.69312,-0.67407,0.10986;
19:43:23.839,-0.69556,-0.69189,0.13184;
19:43:23.849,-0.69287,-0.69556,0.12109;
19:43:23.859,-0.69604,-0.69214,0.08276;
19:43:23.869,-0.69873,-0.69458,0.03931;
19:43:23.879,-0.69189,-0.69824,0.01343;
19:43:23.889,-0.68628,-0.70776,0.01294;
19:43:23.899,-0.68604,-0.70581,0.02808;
19:43:23.909,-0.67529,-0.69189,0.03809;
19:43:23.919,-0.67798,-0.68726,0.04590;
19:43:23.929,-0.69067,-0.69067,0.04907;
19:43:23.939,-0.69458,-0.69116,0.05151;
19:43:23.949,-0.70142,-0.69214,0.06470;
19:43:23.959,-0.71362,-0.68701,0.09766;
19:43:23.969,-0.72803,-0.68799,0.12036;
19:43:23.979,-0.73584,-0.69751,0.11499;
19:43:23.989,-0.73438,-0.70264,0.08594;
19:43:23.999,-0.72705,-0.70972,0.04492;
19:43:24.009,-0.70508,-0.71924,0.00586;
19:43:24.019,-0.64478,-0.73706,0.00708;
19:43:24.029,-0.61987,-0.73096,0.03491;
19:43:24.039,-0.59937,-0.73315,0.05933;
19:43:24.049,-0.58179,-0.73560,0.05347;
19:43:24.059,-0.58228,-0.72021,0.06470;
19:43:24.069,-0.60986,-0.71777,0.09644;
19:43:24.079,-0.63794,-0.71484,0.13745;
19:43:24.089,-0.65576,-0.70850,0.16943;
19:43:24.099,-0.68872,-0.71582,0.17603;
19:43:24.109,-0.70288,-0.71899,0.15332;
19:43:24.119,-0.70117,-0.72119,0.11084;
19:43:24.129,-0.70703,-0.74194,0.06177;
19:43:24.139,-0.71631,-0.75220,0.00317;
19:43:24.149,-0.71533,-0.76196,-0.06030;
19:43:24.159,-0.69312,-0.75391,-0.07935;
19:43:24.169,-0.66479,-0.71460,-0.02930;
19:43:24.179,-0.67310,-0.69165,0.05396;
19:43:24.189,-0.67993,-0.66187,0.15967;
19:43:24.199,-0.70532,-0.65234,0.27246;
19:43:24.209,-0.76587,-0.68262,0.34692;
19:43:24.219,-0.78809,-0.69360,0.27637;
19:43:24.229,-0.78394,-0.71069,0.15625;
19:43:24.239,-0.75635,-0.70874,0.05884;
19:43:24.249,-0.71997,-0.72681,0.02417;
19:43:24.259,-0.67554,-0.73218,0.03882;
19:43:24.269,-0.65332,-0.73389,0.06079;
19:43:24.279,-0.65161,-0.73315,0.05273;
19:43:24.289,-0.64966,-0.72974,0.03955;
19:43:24.299,-0.64600,-0.72607,0.05029;
19:43:24.309,-0.64697,-0.71802,0.08936;
19:43:24.319,-0.65747,-0.71777,0.12598;
19:43:24.329,-0.66479,-0.72070,0.12915;
19:43:24.339,-0.66650,-0.72754,0.10278;
19:43:24.349,-0.66504,-0.73145,0.06885;
19:43:24.359,-0.65381,-0.73340,0.05347;
19:43:24.369,-0.64478,-0.74536,0.08105;
19:43:24.379,-0.64526,-0.72974,0.08008;
19:43:24.389,-0.65332,-0.73438,0.05347;
19:43:24.399,-0.65625,-0.74756,0.02319;
19:43:24.409,-0.64331,-0.74731,0.01270;
19:43:24.419,-0.62891,-0.73950,0.02197;
19:43:24.429,-0.63379,-0.72998,0.03882;
19:43:24.439,-0.65381,-0.72046,0.08154;
19:43:24.449,-0.68311,-0.71753,0.14575;
19:43:24.459,-0.71753,-0.70605,0.18335;
19:43:24.469,-0.73804,-0.70093,0.18018;
19:43:24.479,-0.74292,-0.72144,0.15576;
19:43:24.489,-0.74854,-0.72632,0.11206;
19:43:24.499,-0.74438,-0.73169,0.07104;
19:43:24.509,-0.73364,-0.74072,0.04175;
19:43:24.519,-0.63281,-0.74829,0.06226;
19:43:24.529,-0.60645,-0.74146,0.09863;
19:43:24.539,-0.58472,-0.75049,0.05322;
19:43:24.549,-0.56812,-0.74390,-0.00830;
19:43:24.559,-0.62524,-0.74194,-0.01563;
19:43:24.569,-0.66113,-0.73291,-0.00659;
19:43:24.579,-0.69312,-0.73169,0.01440;
19:43:24.589,-0.70190,-0.71826,0.01416;
19:43:24.599,-0.70239,-0.73608,-0.00757;
19:43:24.609,-0.69946,-0.72168,-0.01294;
19:43:24.619,-0.68457,-0.70825,-0.00659;
19:43:24.629,-0.67676,-0.70459,0.01514;
19:43:24.639,-0.67920,-0.69824,0.06641;
19:43:24.649,-0.70117,-0.71143,0.11670;
19:43:24.659,-0.72852,-0.72900,0.10693;
19:43:24.669,-0.73779,-0.73120,0.05176;
19:43:24.679,-0.74243,-0.72241,-0.00415;
19:43:24.689,-0.72803,-0.71899,-0.03491;
19:43:24.699,-0.71021,-0.72314,-0.01465;
19:43:24.709,-0.69824,-0.72192,0.02881;
19:43:24.719,-0.67944,-0.71631,0.04517;
19:43:24.729,-0.66382,-0.71558,0.04004;
19:43:24.739,-0.65112,-0.72095,0.02930;
19:43:24.749,-0.64673,-0.72266,0.02319;
19:43:24.759,-0.65259,-0.72485,0.02808;
19:43:24.769,-0.66846,-0.72314,0.03467;
19:43:24.779,-0.68335,-0.72266,0.03662;
19:43:24.789,-0.70142,-0.72510,0.02979;
19:43:24.799,-0.71167,-0.72998,0.01807;
19:43:24.809,-0.70557,-0.72754,0.00903;
19:43:24.819,-0.69385,-0.71997,0.01294;
19:43:24.829,-0.68042,-0.72632,0.03467;
19:43:24.839,-0.67456,-0.72827,0.05859;
19:43:24.849,-0.66724,-0.72485,0.05762;
19:43:24.859,-0.65845,-0.72876,0.03271;
19:43:24.869,-0.66357,-0.73120,0.01050;
19:43:24.879,-0.66187,-0.72925,-0.00244;
19:43:24.889,-0.65942,-0.73193,0.00586;
19:43:24.899,-0.66284,-0.73291,0.02393;
19:43:24.909,-0.65674,-0.72705,0.03906;
19:43:24.919,-0.64966,-0.72974,0.04492;
19:43:24.929,-0.65137,-0.72949,0.04199;
19:43:24.939,-0.66309,-0.72729,0.03345;
19:43:24.949,-0.67871,-0.72607,0.01978;
19:43:24.959,-0.68774,-0.72290,0.01123;
19:43:24.969,-0.69287,-0.72754,0.01489;
19:43:24.979,-0.69312,-0.71997,0.04126;
19:43:24.989,-0.68384,-0.72021,0.07227;
19:43:24.999,-0.67432,-0.72876,0.08545;
19:43:25.009,-0.66382,-0.73340,0.07227;
19:43:25.019,-0.65771,-0.73315,0.03833;
19:43:25.029,-0.65796,-0.72632,0.01245;
19:43:25.039,-0.66089,-0.72607,-0.00098;
19:43:25.049,-0.66406,-0.72681,0.00024;
19:43:25.059,-0.66699,-0.72876,0.01978;
19:43:25.069,-0.68140,-0.73560,0.03125;
19:43:25.079,-0.69019,-0.73706,0.02759;
19:43:25.089,-0.68726,-0.73511,0.01660;
19:43:25.099,-0.68555,-0.73389,0.01758;
19:43:25.109,-0.67822,-0.72925,0.04395;
19:43:25.119,-0.67871,-0.73706,0.07495;
19:43:25.129,-0.67603,-0.73975,0.08472;
19:43:25.139,-0.67456,-0.73730,0.07520;
19:43:25.149,-0.66846,-0.73877,0.05566;
19:43:25.159,-0.66016,-0.73926,0.04297;
19:43:25.169,-0.65601,-0.74268,0.04126;
19:43:25.179,-0.65332,-0.74243,0.04688;
19:43:25.189,-0.65234,-0.74268,0.04517;
19:43:25.199,-0.65015,-0.74121,0.03735;
19:43:25.209,-0.64722,-0.73804,0.04150;
19:43:25.219,-0.64111,-0.73682,0.05737;
19:43:25.229,-0.64063,-0.73584,0.07373;
19:43:25.239,-0.64624,-0.73511,0.06934;
19:43:25.249,-0.65063,-0.73877,0.05518;
19:43:25.259,-0.64575,-0.73975,0.03979;
19:43:25.269,-0.64063,-0.73413,0.03687;
19:43:25.279,-0.63501,-0.73486,0.04297;
19:43:25.289,-0.63501,-0.73657,0.05054;
19:43:25.299,-0.63306,-0.73608,0.05249;
19:43:25.309,-0.62866,-0.73511,0.04321;
19:43:25.319,-0.63086,-0.72559,0.02734;
19:43:25.329,-0.63477,-0.72754,0.01929;
19:43:25.339,-0.64429,-0.73340,0.02051;
19:43:25.349,-0.65845,-0.73096,0.01953;
19:43:25.359,-0.67578,-0.72607,0.02490;
19:43:25.369,-0.69312,-0.71655,0.03296;
19:43:25.379,-0.71191,-0.72144,0.04443;
19:43:25.389,-0.72363,-0.72754,0.05566;
19:43:25.399,-0.72803,-0.72705,0.05469;
19:43:25.409,-0.71997,-0.72803,0.03711;
19:43:25.419,-0.70435,-0.72778,0.01245;
19:43:25.429,-0.68091,-0.72607,-0.00610;
19:43:25.439,-0.65454,-0.73169,-0.00684;
19:43:25.449,-0.63916,-0.72778,0.01294;
19:43:25.459,-0.63843,-0.71924,0.04541;
19:43:25.469,-0.65161,-0.71924,0.06860;
19:43:25.479,-0.66211,-0.72314,0.05933;
19:43:25.489,-0.68018,-0.72046,0.04199;
19:43:25.499,-0.69702,-0.71240,0.03345;
19:43:25.509,-0.70996,-0.71411,0.05811;
19:43:25.519,-0.73047,-0.71973,0.10229;
19:43:25.529,-0.74487,-0.72339,0.11548;
19:43:25.539,-0.74927,-0.72388,0.09668;
19:43:25.549,-0.73975,-0.71558,0.05493;
19:43:25.559,-0.72021,-0.71655,0.01685;
19:43:25.569,-0.69995,-0.72266,0.00513;
19:43:25.579,-0.68018,-0.71680,0.02246;
19:43:25.589,-0.66113,-0.72485,0.03345;
19:43:25.599,-0.65039,-0.72681,0.02734;
19:43:25.609,-0.65063,-0.72485,0.01929;
19:43:25.619,-0.65479,-0.72339,0.01416;
19:43:25.629,-0.66406,-0.71875,0.01074;
19:43:25.639,-0.67798,-0.71338,0.01001;
19:43:25.649,-0.69116,-0.71533,0.01147;
19:43:25.659,-0.69629,-0.73022,0.01147;
19:43:25.669,-0.68994,-0.73120,0.01465;
19:43:25.679,-0.68408,-0.72192,0.02319;
19:43:25.689,-0.68188,-0.72192,0.03906;
19:43:25.699,-0.68311,-0.72754,0.05029;
19:43:25.709,-0.68237,-0.72949,0.04175;
19:43:25.719,-0.67432,-0.72559,0.02197;
19:43:25.729,-0.66504,-0.73242,0.00684;
19:43:25.739,-0.65454,-0.73511,0.00732;
19:43:25.749,-0.65186,-0.73340,0.02295;
19:43:25.759,-0.65381,-0.73853,0.03174;
19:43:25.769,-0.65405,-0.73950,0.03296;
19:43:25.779,-0.65845,-0.73462,0.00903;
19:43:25.789,-0.65967,-0.73511,-0.00854;
19:43:25.799,-0.65356,-0.73486,0.00952;
19:43:25.809,-0.65894,-0.73730,0.03857;
19:43:25.819,-0.66602,-0.74048,0.06616;
19:43:25.829,-0.66479,-0.74048,0.06763;
19:43:25.839,-0.65967,-0.74585,0.03955;
19:43:25.849,-0.64893,-0.74487,0.01270;
19:43:25.859,-0.64209,-0.74707,0.00708;
19:43:25.869,-0.63916,-0.74414,0.02393;
19:43:25.879,-0.64526,-0.74414,0.04810;
19:43:25.889,-0.65308,-0.74438,0.06177;
19:43:25.899,-0.65137,-0.74512,0.06128;
19:43:25.909,-0.63940,-0.74683,0.05298;
19:43:25.919,-0.62891,-0.74463,0.05225;
19:43:25.929,-0.62573,-0.74854,0.06323;
19:43:25.939,-0.62964,-0.74951,0.07202;
19:43:25.949,-0.63794,-0.74780,0.07275;
19:43:25.959,-0.64746,-0.74194,0.07813;
19:43:25.969,-0.65894,-0.74316,0.08301;
19:43:25.979,-0.66626,-0.74170,0.08496;
19:43:25.989,-0.66992,-0.73584,0.08936;
19:43:25.999,-0.68066,-0.73535,0.08691;
19:43:26.009,-0.66406,-0.73389,0.08008;
19:43:26.019,-0.65942,-0.73047,0.08423;
19:43:26.029,-0.65674,-0.73096,0.08862;
19:43:26.039,-0.65161,-0.73877,0.06055;
19:43:26.049,-0.60303,-0.74585,0.01929;
19:43:26.059,-0.56958,-0.74731,0.02563;
19:43:26.069,-0.56274,-0.74561,0.04297;
19:43:26.079,-0.62500,-0.74683,0.01318;
19:43:26.089,-0.69580,-0.72217,0.11475;
19:43:26.099,-0.72559,-0.74390,0.17505;
19:43:26.109,-0.71997,-0.74634,0.10889;
19:43:26.119,-0.70386,-0.72656,0.02148;
19:43:26.129,-0.71167,-0.72388,-0.01782;
19:43:26.139,-0.72632,-0.72852,0.01611;
19:43:26.149,-0.71387,-0.73022,0.08984;
19:43:26.159,-0.70044,-0.71655,0.14111;
19:43:26.169,-0.69214,-0.70801,0.12134;
19:43:26.179,-0.69214,-0.70483,0.07202;
19:43:26.189,-0.70337,-0.70630,0.04028;
19:43:26.199,-0.70532,-0.72070,0.05542;
19:43:26.209,-0.70459,-0.71509,0.10840;
19:43:26.219,-0.70557,-0.71289,0.16357;
19:43:26.229,-0.71802,-0.71704,0.19971;
19:43:26.239,-0.72852,-0.71729,0.18774;
19:43:26.249,-0.73535,-0.72021,0.14624;
19:43:26.259,-0.71631,-0.71289,0.09277;
19:43:26.269,-0.69653,-0.71045,0.06299;
19:43:26.279,-0.69873,-0.71875,0.06860;
19:43:26.289,-0.69482,-0.72241,0.08105;
19:43:26.299,-0.69067,-0.71777,0.08179;
19:43:26.309,-0.67822,-0.72217,0.06299;
19:43:26.319,-0.66113,-0.73022,0.03687;
19:43:26.329,-0.64453,-0.73828,0.00317;
19:43:26.339,-0.62939,-0.74414,-0.02295;
19:43:26.349,-0.61621,-0.74414,-0.02930;
19:43:26.359,-0.60205,-0.73706,-0.01172;
19:43:26.369,-0.59302,-0.73804,0.01440;
19:43:26.379,-0.58667,-0.74658,0.01831;
19:43:26.389,-0.57617,-0.71167,0.06885;
19:43:26.399,-0.60059,-0.69067,0.18115;
19:43:26.409,-0.64453,-0.69971,0.25415;
19:43:26.419,-0.68652,-0.71753,0.26001;
19:43:26.429,-0.72607,-0.72412,0.22021;
19:43:26.439,-0.75635,-0.69995,0.14966;
19:43:26.449,-0.76587,-0.68701,0.07642;
19:43:26.459,-0.76245,-0.69092,0.04688;
19:43:26.469,-0.75903,-0.69946,0.05908;
19:43:26.479,-0.73804,-0.69458,0.07861;
19:43:26.489,-0.71484,-0.68262,0.10059;
19:43:26.499,-0.70801,-0.69043,0.10864;
19:43:26.509,-0.71069,-0.69092,0.09375;
19:43:26.519,-0.70972,-0.70386,0.06201;
19:43:26.529,-0.70044,-0.71704,0.03784;
19:43:26.539,-0.68311,-0.71460,0.03003;
19:43:26.549,-0.66870,-0.71167,0.05225;
19:43:26.559,-0.66553,-0.71680,0.10059;
19:43:26.569,-0.67090,-0.73462,0.13794;
19:43:26.579,-0.68555,-0.73535,0.14941;
19:43:26.589,-0.70435,-0.72363,0.14087;
19:43:26.599,-0.72705,-0.72827,0.13428;
19:43:26.609,-0.73584,-0.73364,0.11523;
19:43:26.619,-0.72949,-0.73193,0.10107;
19:43:26.629,-0.72461,-0.73438,0.10669;
19:43:26.639,-0.71021,-0.73145,0.12158;
19:43:26.649,-0.70630,-0.72754,0.14063;
19:43:26.659,-0.70581,-0.73706,0.14600;
19:43:26.669,-0.70679,-0.72998,0.12598;
19:43:26.679,-0.72119,-0.71143,0.11597;
19:43:26.689,-0.74341,-0.72632,0.13916;
19:43:26.699,-0.75757,-0.72461,0.15942;
19:43:26.709,-0.75635,-0.71631,0.15210;
19:43:26.719,-0.74902,-0.72046,0.12793;
19:43:26.729,-0.72852,-0.72437,0.10132;
19:43:26.739,-0.69995,-0.72705,0.08203;
19:43:26.749,-0.67188,-0.72754,0.07373;
19:43:26.759,-0.64551,-0.73364,0.07422;
19:43:26.769,-0.61743,-0.73828,0.05762;
19:43:26.779,-0.59253,-0.74048,0.02173;
19:43:26.789,-0.57324,-0.74976,-0.01318;
19:43:26.799,-0.53027,-0.74756,-0.05249;
19:43:26.809,-0.48877,-0.73828,-0.01392;
19:43:26.819,-0.42993,-0.73926,0.05566;
19:43:26.829,-0.38232,-0.73511,0.14185;
19:43:26.839,-0.33374,-0.74243,0.19043;
19:43:26.849,-0.34766,-0.74390,0.18115;
19:43:26.859,-0.42310,-0.71362,0.15259;
19:43:26.869,-0.57617,-0.71265,0.13672;
19:43:26.879,-0.71216,-0.72412,0.14087;
19:43:26.889,-0.81055,-0.69336,0.14844;
19:43:26.899,-0.90918,-0.70703,0.17578;
19:43:26.909,-0.89990,-0.69702,0.16089;
19:43:26.919,-0.86670,-0.67188,0.13184;
19:43:26.929,-0.83252,-0.65796,0.11646;
19:43:26.939,-0.79248,-0.64648,0.17407;
19:43:26.949,-0.78027,-0.64844,0.26196;
19:43:26.959,-0.78711,-0.67334,0.28076;
19:43:26.969,-0.77368,-0.69482,0.21045;
19:43:26.979,-0.77783,-0.70264,0.09912;
19:43:26.989,-0.77686,-0.70288,0.02148;
19:43:26.999,-0.76660,-0.70972,0.00562;
19:43:27.009,-0.76367,-0.72876,0.03271;
19:43:27.019,-0.76001,-0.74976,0.07495;
19:43:27.029,-0.75854,-0.73291,0.13989;
19:43:27.039,-0.74658,-0.71118,0.19312;
19:43:27.049,-0.73413,-0.72412,0.21094;
19:43:27.059,-0.71533,-0.74414,0.19238;
19:43:27.069,-0.69116,-0.74463,0.14453;
19:43:27.079,-0.66772,-0.74365,0.09839;
19:43:27.089,-0.64331,-0.74976,0.07373;
19:43:27.099,-0.61865,-0.76172,0.07300;
19:43:27.109,-0.59033,-0.77344,0.08276;
19:43:27.119,-0.55688,-0.77246,0.08813;
19:43:27.129,-0.54541,-0.75562,0.09912;
19:43:27.139,-0.56396,-0.74585,0.12524;
19:43:27.149,-0.59961,-0.74292,0.15063;
19:43:27.159,-0.62451,-0.74268,0.15747;
19:43:27.169,-0.62817,-0.74072,0.17285;
19:43:27.179,-0.62280,-0.73682,0.18140;
19:43:27.189,-0.62451,-0.73120,0.17261;
19:43:27.199,-0.62622,-0.73047,0.16626;
19:43:27.209,-0.62012,-0.73291,0.15601;
19:43:27.219,-0.58521,-0.73242,0.12402;
19:43:27.229,-0.55835,-0.74365,0.09717;
19:43:27.239,-0.51758,-0.74805,0.07007;
19:43:27.249,-0.47241,-0.73999,0.04712;
19:43:27.259,-0.43384,-0.74463,0.03149;
19:43:27.269,-0.37573,-0.76660,0.01294;
19:43:27.279,-0.31567,-0.79077,-0.01440;
19:43:27.289,-0.29492,-0.74658,0.00879;
19:43:27.299,-0.40015,-0.69116,0.10376;
19:43:27.309,-0.56860,-0.65186,0.28149;
19:43:27.319,-0.77295,-0.60913,0.42920;
19:43:27.329,-1.00757,-0.67456,0.40674;
19:43:27.339,-1.05420,-0.68872,0.19556;
19:43:27.349,-1.07129,-0.72021,0.01196;
19:43:27.359,-1.03149,-0.69019,-0.09009;
19:43:27.369,-0.94238,-0.66748,-0.04932;
19:43:27.379,-0.86206,-0.67725,0.06592;
19:43:27.389,-0.77954,-0.68091,0.18408;
19:43:27.399,-0.73853,-0.67090,0.22656;
19:43:27.409,-0.71436,-0.67456,0.15967;
19:43:27.419,-0.71875,-0.68555,0.05176;
19:43:27.429,-0.73853,-0.69873,0.01880;
19:43:27.439,-0.72754,-0.72070,0.09009;
19:43:27.449,-0.72583,-0.72363,0.19653;
19:43:27.459,-0.72217,-0.73462,0.26294;
19:43:27.469,-0.70947,-0.76074,0.23682;
19:43:27.479,-0.70117,-0.76392,0.14673;
19:43:27.489,-0.67847,-0.76099,0.05981;
19:43:27.499,-0.64819,-0.76978,0.11938;
19:43:27.509,-0.63403,-0.76099,0.14307;
19:43:27.519,-0.62842,-0.75708,0.07129;
19:43:27.529,-0.58984,-0.75488,0.05835;
19:43:27.539,-0.51636,-0.76099,0.06177;
19:43:27.549,-0.47437,-0.76758,0.00244;
19:43:27.559,-0.39917,-0.76392,-0.02783;
19:43:27.569,-0.29053,-0.77979,-0.00977;
19:43:27.579,-0.40161,-0.69995,0.14307;
19:43:27.589,-0.55811,-0.67554,0.27319;
19:43:27.599,-0.67261,-0.66895,0.37256;
19:43:27.609,-0.75024,-0.66040,0.41968;
19:43:27.619,-0.85913,-0.69653,0.33203;
19:43:27.629,-0.89087,-0.68896,0.21387;
19:43:27.639,-0.88892,-0.69434,0.09937;
19:43:27.649,-0.86548,-0.69897,0.02075;
19:43:27.659,-0.81128,-0.69678,0.00098;
19:43:27.669,-0.77393,-0.68481,0.02246;
19:43:27.679,-0.75684,-0.65454,0.05835;
19:43:27.689,-0.76221,-0.65405,0.10596;
19:43:27.699,-0.78125,-0.69604,0.13306;
19:43:27.709,-0.79468,-0.70776,0.11133;
19:43:27.719,-0.77124,-0.70947,0.07983;
19:43:27.729,-0.71338,-0.71509,0.06543;
19:43:27.739,-0.67041,-0.71582,0.07056;
19:43:27.749,-0.64697,-0.73657,0.10205;
19:43:27.759,-0.64453,-0.76221,0.11890;
19:43:27.769,-0.63428,-0.77734,0.10278;
19:43:27.779,-0.61108,-0.77319,0.07886;
19:43:27.789,-0.60596,-0.77246,0.05811;
19:43:27.799,-0.62231,-0.75415,0.07593;
19:43:27.809,-0.64746,-0.74487,0.14648;
19:43:27.819,-0.64722,-0.77100,0.23340;
19:43:27.829,-0.64941,-0.80566,0.27246;
19:43:27.839,-0.65015,-0.82227,0.25195;
19:43:27.849,-0.65137,-0.80566,0.20190;
19:43:27.859,-0.66602,-0.77539,0.14990;
19:43:27.869,-0.65918,-0.76221,0.11890;
19:43:27.879,-0.63867,-0.78662,0.14063;
19:43:27.889,-0.63525,-0.76855,0.15576;
19:43:27.899,-0.63550,-0.75146,0.15503;
19:43:27.909,-0.62939,-0.75000,0.14673;
19:43:27.919,-0.61963,-0.74634,0.14111;
19:43:27.929,-0.60938,-0.74170,0.13843;
19:43:27.939,-0.60913,-0.73950,0.13281;
19:43:27.949,-0.61938,-0.74878,0.11279;
19:43:27.959,-0.59863,-0.75000,0.05664;
19:43:27.969,-0.61230,-0.75293,-0.01514;
19:43:27.979,-0.63062,-0.74829,-0.05298;
19:43:27.989,-0.62720,-0.73730,-0.03174;
19:43:27.999,-0.63818,-0.73755,0.03052;
19:43:28.009,-0.63403,-0.73804,0.10107;
19:43:28.019,-0.63599,-0.72363,0.15649;
19:43:28.029,-0.63989,-0.71167,0.18018;
19:43:28.039,-0.64868,-0.71240,0.18530;
19:43:28.049,-0.64380,-0.70117,0.17212;
19:43:28.059,-0.63330,-0.68506,0.15942;
19:43:28.069,-0.63501,-0.69043,0.15039;
19:43:28.079,-0.64844,-0.71021,0.13379;
19:43:28.089,-0.66064,-0.70679,0.12451;
19:43:28.099,-0.67310,-0.70313,0.12402;
19:43:28.109,-0.67725,-0.71021,0.11670;
19:43:28.119,-0.67017,-0.69678,0.10254;
19:43:28.129,-0.66602,-0.70679,0.10596;
19:43:28.139,-0.66626,-0.73242,0.11890;
19:43:28.149,-0.66895,-0.72754,0.11719;
19:43:28.159,-0.67139,-0.72534,0.10449;
19:43:28.169,-0.67480,-0.72119,0.08765;
19:43:28.179,-0.67407,-0.71411,0.08203;
19:43:28.189,-0.67456,-0.71899,0.08813;
19:43:28.199,-0.64697,-0.72876,0.09131;
19:43:28.209,-0.64038,-0.75635,0.08081;
19:43:28.219,-0.65210,-0.78076,0.04321;
19:43:28.229,-0.64941,-0.78467,0.00000;
19:43:28.239,-0.64355,-0.76465,-0.02148;
19:43:28.249,-0.63379,-0.76611,0.00293;
19:43:28.259,-0.63721,-0.78857,0.05786;
19:43:28.269,-0.65161,-0.78784,0.10815;
19:43:28.279,-0.67798,-0.77319,0.13428;
19:43:28.289,-0.69312,-0.76978,0.14673;
19:43:28.299,-0.68872,-0.77539,0.17114;
19:43:28.309,-0.68555,-0.76099,0.21387;
19:43:28.319,-0.67505,-0.76709,0.25659;
19:43:28.329,-0.67432,-0.78711,0.27173;
19:43:28.339,-0.66455,-0.78564,0.25415;
19:43:28.349,-0.64453,-0.77417,0.24390;
19:43:28.359,-0.65723,-0.76025,0.26123;
19:43:28.369,-0.65405,-0.77588,0.26270;
19:43:28.379,-0.64478,-0.78467,0.23389;
19:43:28.389,-0.64282,-0.75903,0.18408;
19:43:28.399,-0.64087,-0.73999,0.15356;
19:43:28.409,-0.64307,-0.73877,0.16479;
19:43:28.419,-0.66138,-0.74243,0.18408;
19:43:28.429,-0.66699,-0.76123,0.06421;
19:43:28.439,-0.64404,-0.77856,-0.04126;
19:43:28.449,-0.61743,-0.76758,-0.11572;
19:43:28.459,-0.59399,-0.75220,-0.13721;
19:43:28.469,-0.58032,-0.74146,-0.06738;
19:43:28.479,-0.58472,-0.73633,0.04663;
19:43:28.489,-0.60010,-0.74390,0.13354;
19:43:28.499,-0.59497,-0.74658,0.15991;
19:43:28.509,-0.58569,-0.74683,0.12134;
19:43:28.519,-0.58276,-0.74048,0.05835;
19:43:28.529,-0.57178,-0.74023,0.01245;
19:43:28.539,-0.55127,-0.74805,0.00781;
19:43:28.549,-0.55273,-0.74780,0.03052;
19:43:28.559,-0.56201,-0.73682,0.03955;
19:43:28.569,-0.57837,-0.71680,0.03833;
19:43:28.579,-0.62378,-0.78516,-0.10767;
19:43:28.589,-0.62378,-0.76611,-0.11133;
19:43:28.599,-0.64722,-0.74243,-0.04541;
19:43:28.609,-0.68384,-0.68506,0.07715;
19:43:28.619,-0.74780,-0.68530,0.22314;
19:43:28.629,-0.77026,-0.72754,0.31055;
19:43:28.639,-0.76660,-0.76636,0.21948;
19:43:28.649,-0.75366,-0.75220,0.10181;
19:43:28.659,-0.73535,-0.72974,-0.00146;
19:43:28.669,-0.71582,-0.73950,-0.04761;
19:43:28.679,-0.70068,-0.74170,-0.03149;
19:43:28.689,-0.67896,-0.74023,0.01245;
19:43:28.699,-0.66064,-0.73877,0.05298;
19:43:28.709,-0.65308,-0.73706,0.07007;
19:43:28.719,-0.64624,-0.73608,0.07739;
19:43:28.729,-0.63550,-0.72583,0.09668;
19:43:28.739,-0.62964,-0.73730,0.10205;
19:43:28.749,-0.63281,-0.75146,0.08472;
19:43:28.759,-0.63477,-0.75195,0.05371;
19:43:28.769,-0.63843,-0.73413,0.01514;
19:43:28.779,-0.63721,-0.70850,-0.00464;
19:43:28.789,-0.64014,-0.70166,-0.00659;
19:43:28.799,-0.64893,-0.70044,0.00269;
19:43:28.809,-0.65063,-0.70020,0.03198;
19:43:28.819,-0.67139,-0.68896,0.07129;
19:43:28.829,-0.69360,-0.67749,0.08472;
19:43:28.839,-0.70239,-0.68823,0.05640;
19:43:28.849,-0.71411,-0.68872,0.01929;
19:43:28.859,-0.71118,-0.68164,-0.00488;
19:43:28.869,-0.70166,-0.67358,0.00610;
19:43:28.879,-0.69067,-0.67285,0.03784;
19:43:28.889,-0.69312,-0.67334,0.05933;
19:43:28.899,-0.71118,-0.67017,0.05444;
19:43:28.909,-0.73560,-0.66016,0.07227;
19:43:28.919,-0.74365,-0.68066,0.06787;
19:43:28.929,-0.74097,-0.67578,0.05957;
19:43:28.939,-0.74927,-0.68042,0.07935;
19:43:28.949,-0.74707,-0.69849,0.07324;
19:43:28.959,-0.72876,-0.68042,0.05933;
19:43:28.969,-0.71118,-0.69067,0.07568;
19:43:28.979,-0.68677,-0.71875,0.04517;
19:43:28.989,-0.69629,-0.70581,0.01489;
19:43:28.999,-0.69800,-0.71216,0.04077;
19:43:29.009,-0.70605,-0.72144,0.08423;
19:43:29.019,-0.70288,-0.72070,0.10791;
19:43:29.029,-0.69604,-0.72510,0.09937;
19:43:29.039,-0.69336,-0.72632,0.08057;
19:43:29.049,-0.69629,-0.71826,0.06787;
19:43:29.059,-0.70776,-0.71265,0.07373;
19:43:29.069,-0.70874,-0.72119,0.08057;
19:43:29.079,-0.69482,-0.72754,0.07813;
19:43:29.089,-0.68530,-0.72705,0.07446;
19:43:29.099,-0.66382,-0.73120,0.06763;
19:43:29.109,-0.65356,-0.72534,0.05615;
19:43:29.119,-0.65576,-0.72266,0.05200;
19:43:29.129,-0.64844,-0.72681,0.06641;
19:43:29.139,-0.64136,-0.72876,0.08545;
19:43:29.149,-0.63599,-0.71265,0.12036;
19:43:29.159,-0.63843,-0.70679,0.15747;
19:43:29.169,-0.64258,-0.71631,0.17188;
19:43:29.179,-0.64819,-0.72412,0.16895;
19:43:29.189,-0.65845,-0.72192,0.15259;
19:43:29.199,-0.66748,-0.71509,0.13135;
19:43:29.209,-0.67163,-0.71118,0.11060;
19:43:29.219,-0.66504,-0.71411,0.09546;
19:43:29.229,-0.65308,-0.72974,0.09131;
19:43:29.239,-0.64795,-0.72778,0.07935;
19:43:29.249,-0.64600,-0.72754,0.05591;
19:43:29.259,-0.64307,-0.72656,0.04565;
19:43:29.269,-0.64819,-0.72412,0.05688;
19:43:29.279,-0.65820,-0.72461,0.07813;
19:43:29.289,-0.66748,-0.71948,0.09131;
19:43:29.299,-0.67603,-0.72681,0.09497;
19:43:29.309,-0.66455,-0.72998,0.08350;
19:43:29.319,-0.67065,-0.73633,0.10352;
19:43:29.329,-0.68237,-0.72998,0.13696;
19:43:29.339,-0.69019,-0.73462,0.12549;
19:43:29.349,-0.68726,-0.73364,0.10596;
19:43:29.359,-0.68066,-0.73315,0.10132;
19:43:29.369,-0.67261,-0.72876,0.10474;
19:43:29.379,-0.65894,-0.72876,0.11499;
19:43:29.389,-0.65112,-0.73193,0.12622;
19:43:29.399,-0.65283,-0.73193,0.13940;
19:43:29.409,-0.66113,-0.72900,0.15112;
19:43:29.419,-0.68115,-0.72925,0.14648;
19:43:29.429,-0.69214,-0.73145,0.13843;
19:43:29.439,-0.69824,-0.72388,0.13062;
19:43:29.449,-0.70044,-0.73047,0.13208;
19:43:29.459,-0.69775,-0.72876,0.13818;
19:43:29.469,-0.70435,-0.72534,0.13281;
19:43:29.479,-0.70605,-0.73633,0.12061;
19:43:29.489,-0.70288,-0.73462,0.09229;
19:43:29.499,-0.68311,-0.73462,0.07202;
19:43:29.509,-0.65088,-0.73511,0.08008;
19:43:29.519,-0.63184,-0.73779,0.09131;
19:43:29.529,-0.62451,-0.73975,0.09888;
19:43:29.539,-0.61304,-0.73657,0.09180;
19:43:29.549,-0.61133,-0.74048,0.07275;
19:43:29.559,-0.61279,-0.74536,0.06299;
19:43:29.569,-0.60815,-0.74683,0.07202;
19:43:29.579,-0.59961,-0.74194,0.09814;
19:43:29.589,-0.60205,-0.73657,0.13184;
19:43:29.599,-0.61792,-0.73853,0.15039;
19:43:29.609,-0.62524,-0.73975,0.13965;
19:43:29.619,-0.63623,-0.73682,0.11475;
19:43:29.629,-0.64551,-0.73462,0.08740;
19:43:29.639,-0.65015,-0.73071,0.06445;
19:43:29.649,-0.65259,-0.73145,0.05835;
19:43:29.659,-0.65503,-0.72827,0.05127;
19:43:29.669,-0.66187,-0.72095,0.05078;
19:43:29.679,-0.67407,-0.72095,0.05615;
19:43:29.689,-0.68945,-0.71753,0.06519;
19:43:29.699,-0.69629,-0.71387,0.07446;
19:43:29.709,-0.68970,-0.71582,0.07690;
19:43:29.719,-0.69189,-0.72168,0.08179;
19:43:29.729,-0.69116,-0.72339,0.08105;
19:43:29.739,-0.68994,-0.71851,0.08545;
19:43:29.749,-0.69434,-0.72119,0.09473;
19:43:29.759,-0.68945,-0.72900,0.10083;
19:43:29.769,-0.68408,-0.73022,0.10229;
19:43:29.779,-0.67725,-0.72949,0.08813;
19:43:29.789,-0.66528,-0.72705,0.07324;
19:43:29.799,-0.64551,-0.72534,0.07349;
19:43:29.809,-0.62134,-0.73218,0.09644;
19:43:29.819,-0.60596,-0.74194,0.11670;
19:43:29.829,-0.60352,-0.74927,0.11523;
19:43:29.839,-0.61304,-0.75317,0.08179;
19:43:29.849,-0.63013,-0.74634,0.04858;
19:43:29.859,-0.64551,-0.73608,0.05493;
19:43:29.869,-0.64526,-0.73779,0.08765;
19:43:29.879,-0.64380,-0.74219,0.13135;
19:43:29.889,-0.65356,-0.73706,0.16382;
19:43:29.899,-0.67090,-0.73071,0.17188;
19:43:29.909,-0.69409,-0.72607,0.16724;
19:43:29.919,-0.71191,-0.72461,0.16309;
19:43:29.929,-0.71973,-0.71606,0.15918;
19:43:29.939,-0.71948,-0.71436,0.16064;
19:43:29.949,-0.71387,-0.72144,0.16016;
19:43:29.959,-0.70190,-0.71362,0.15283;
19:43:29.969,-0.69336,-0.70337,0.14087;
19:43:29.979,-0.69189,-0.69849,0.11816;
19:43:29.989,-0.69165,-0.69653,0.10229;
19:43:29.999,-0.69189,-0.71533,0.11597;
19:43:30.009,-0.67798,-0.72949,0.13867;
19:43:30.019,-0.65649,-0.72266,0.15186;
19:43:30.029,-0.64941,-0.73022,0.15991;
19:43:30.039,-0.63940,-0.73047,0.16113;
19:43:30.049,-0.62988,-0.72925,0.16382;
19:43:30.059,-0.62622,-0.74023,0.15454;
19:43:30.069,-0.63086,-0.73853,0.13135;
19:43:30.079,-0.64893,-0.73413,0.11377;
19:43:30.089,-0.65405,-0.72852,0.12158;
19:43:30.099,-0.65942,-0.71875,0.15112;
19:43:30.109,-0.67603,-0.71094,0.18091;
19:43:30.119,-0.68896,-0.71558,0.18848;
19:43:30.129,-0.69800,-0.71924,0.16870;
19:43:30.139,-0.69604,-0.71777,0.13672;
19:43:30.149,-0.68042,-0.72168,0.10547;
19:43:30.159,-0.66260,-0.72827,0.10645;
19:43:30.169,-0.65967,-0.72998,0.12598;
19:43:30.179,-0.66650,-0.72485,0.14526;
19:43:30.189,-0.69019,-0.71387,0.15063;
19:43:30.199,-0.70752,-0.70654,0.14160;
19:43:30.209,-0.69971,-0.71680,0.13086;
19:43:30.219,-0.67798,-0.72192,0.12280;
19:43:30.229,-0.66895,-0.73315,0.12231;
19:43:30.239,-0.65625,-0.74268,0.11157;
19:43:30.249,-0.64551,-0.74072,0.09131;
19:43:30.259,-0.64966,-0.74634,0.07593;
19:43:30.269,-0.64429,-0.74609,0.06421;
19:43:30.279,-0.64014,-0.73657,0.06104;
19:43:30.289,-0.64355,-0.72632,0.08691;
19:43:30.299,-0.65356,-0.71509,0.14331;
19:43:30.309,-0.64966,-0.73706,0.06396;
19:43:30.319,-0.63892,-0.74438,0.01392;
19:43:30.329,-0.64844,-0.73560,0.04834;
19:43:30.339,-0.67407,-0.72852,0.07764;
19:43:30.349,-0.66528,-0.72705,0.14868;
19:43:30.359,-0.68091,-0.73657,0.18018;
19:43:30.369,-0.66846,-0.72607,0.12378;
19:43:30.379,-0.64551,-0.73193,0.13013;
19:43:30.389,-0.63989,-0.73169,0.15332;
19:43:30.399,-0.64917,-0.73657,0.16260;
19:43:30.409,-0.65259,-0.73291,0.15649;
19:43:30.419,-0.65015,-0.73779,0.14258;
19:43:30.429,-0.64380,-0.74194,0.11670;
19:43:30.439,-0.64380,-0.74097,0.08984;
19:43:30.449,-0.63159,-0.73633,0.08838;
19:43:30.459,-0.62720,-0.73901,0.11621;
19:43:30.469,-0.62524,-0.74585,0.14844;
19:43:30.479,-0.61768,-0.75122,0.15186;
19:43:30.489,-0.62573,-0.74951,0.13306;
19:43:30.499,-0.63647,-0.74268,0.11963;
19:43:30.509,-0.64478,-0.74097,0.13647;
19:43:30.519,-0.65601,-0.74536,0.18042;
19:43:30.529,-0.66064,-0.75122,0.21973;
19:43:30.539,-0.65259,-0.75000,0.22949;
19:43:30.549,-0.65308,-0.74683,0.20020;
19:43:30.559,-0.64380,-0.74170,0.15869;
19:43:30.569,-0.64014,-0.74316,0.12988;
19:43:30.579,-0.63354,-0.74609,0.12769;
19:43:30.589,-0.62476,-0.74438,0.13428;
19:43:30.599,-0.62231,-0.74243,0.13037;
19:43:30.609,-0.61865,-0.74219,0.12354;
19:43:30.619,-0.62695,-0.73901,0.12183;
19:43:30.629,-0.63452,-0.73071,0.14111;
19:43:30.639,-0.64355,-0.73389,0.16992;
19:43:30.649,-0.65234,-0.73633,0.18799;
19:43:30.659,-0.66064,-0.73511,0.19189;
19:43:30.669,-0.66504,-0.73120,0.18799;
19:43:30.679,-0.66675,-0.72778,0.18262;
19:43:30.689,-0.67065,-0.73047,0.18506;
19:43:30.699,-0.67847,-0.72339,0.20142;
19:43:30.709,-0.68262,-0.72095,0.20947;
19:43:30.719,-0.68188,-0.72778,0.20483;
19:43:30.729,-0.68164,-0.72949,0.18970;
19:43:30.739,-0.68018,-0.72217,0.16260;
19:43:30.749,-0.66870,-0.72876,0.14697;
19:43:30.759,-0.64258,-0.74512,0.14941;
19:43:30.769,-0.62720,-0.75244,0.15283;
19:43:30.779,-0.62476,-0.74585,0.14038;
19:43:30.789,-0.62061,-0.74805,0.12183;
19:43:30.799,-0.60669,-0.75928,0.09888;
19:43:30.809,-0.59204,-0.77002,0.07568;
19:43:30.819,-0.58911,-0.77490,0.05273;
19:43:30.829,-0.58008,-0.75977,0.04468;
19:43:30.839,-0.57886,-0.73438,0.10254;
19:43:30.849,-0.61255,-0.73242,0.19751;
19:43:30.859,-0.64746,-0.74829,0.22681;
19:43:30.869,-0.65283,-0.74609,0.15527;
19:43:30.879,-0.64478,-0.74072,0.09229;
19:43:30.889,-0.64600,-0.74878,0.07422;
19:43:30.899,-0.64038,-0.74219,0.11792;
19:43:30.909,-0.64258,-0.73193,0.17065;
19:43:30.919,-0.65869,-0.73340,0.19775;
19:43:30.929,-0.66675,-0.72803,0.19995;
19:43:30.939,-0.67676,-0.72192,0.19067;
19:43:30.949,-0.69287,-0.72046,0.18848;
19:43:30.959,-0.70313,-0.72168,0.19971;
19:43:30.969,-0.70386,-0.72192,0.20166;
19:43:30.979,-0.69849,-0.72412,0.18970;
19:43:30.989,-0.68701,-0.72339,0.17358;
19:43:30.999,-0.67480,-0.72021,0.15112;
19:43:31.009,-0.66626,-0.72632,0.14673;
19:43:31.019,-0.66040,-0.72974,0.15137;
19:43:31.029,-0.66016,-0.73120,0.14941;
19:43:31.039,-0.65576,-0.73706,0.13770;
19:43:31.049,-0.64795,-0.74048,0.11694;
19:43:31.059,-0.64087,-0.74023,0.10010;
19:43:31.069,-0.63550,-0.74561,0.08252;
19:43:31.079,-0.62939,-0.74927,0.07739;
19:43:31.089,-0.61304,-0.74438,0.07837;
19:43:31.099,-0.60449,-0.73926,0.08740;
19:43:31.109,-0.60498,-0.73999,0.10547;
19:43:31.119,-0.60962,-0.74902,0.10596;
19:43:31.129,-0.60718,-0.74976,0.08105;
19:43:31.139,-0.61401,-0.73633,0.07813;
19:43:31.149,-0.63452,-0.72998,0.11621;
19:43:31.159,-0.65674,-0.73120,0.16577;
19:43:31.169,-0.68311,-0.73120,0.19751;
19:43:31.179,-0.70068,-0.73364,0.18848;
19:43:31.189,-0.70874,-0.72729,0.15283;
19:43:31.199,-0.70874,-0.72876,0.12354;
19:43:31.209,-0.70972,-0.72949,0.13257;
19:43:31.219,-0.69971,-0.72314,0.15723;
19:43:31.229,-0.68677,-0.72192,0.17725;
19:43:31.239,-0.68262,-0.72095,0.18799;
19:43:31.249,-0.68042,-0.71729,0.19458;
19:43:31.259,-0.67871,-0.71655,0.19946;
19:43:31.269,-0.68555,-0.71777,0.20557;
19:43:31.279,-0.69067,-0.71509,0.21997;
19:43:31.289,-0.69141,-0.71704,0.21899;
19:43:31.299,-0.68433,-0.73291,0.19971;
19:43:31.309,-0.66162,-0.74487,0.16260;
19:43:31.319,-0.63940,-0.74438,0.11914;
19:43:31.329,-0.63574,-0.74316,0.08398;
19:43:31.339,-0.63892,-0.74341,0.07129;
19:43:31.349,-0.62988,-0.74512,0.06494;
19:43:31.359,-0.63037,-0.74756,0.04175;
19:43:31.369,-0.62793,-0.74976,0.01636;
19:43:31.379,-0.61377,-0.75513,0.01611;
19:43:31.389,-0.57935,-0.78516,0.01978;
19:43:31.399,-0.53589,-0.81055,-0.00586;
19:43:31.409,-0.51245,-0.80054,-0.04663;
19:43:31.419,-0.53442,-0.79199,-0.03711;
19:43:31.429,-0.55444,-0.73804,0.04517;
19:43:31.439,-0.59790,-0.69238,0.20483;
19:43:31.449,-0.64697,-0.69727,0.35864;
19:43:31.459,-0.69019,-0.71509,0.43970;
19:43:31.469,-0.74097,-0.72437,0.32788;
19:43:31.479,-0.75537,-0.72046,0.19482;
19:43:31.489,-0.74194,-0.70752,0.09424;
19:43:31.499,-0.71973,-0.71582,0.07690;
19:43:31.509,-0.69604,-0.71387,0.12256;
19:43:31.519,-0.66846,-0.70850,0.20288;
19:43:31.529,-0.66675,-0.71167,0.19629;
19:43:31.539,-0.65723,-0.71704,0.17236;
19:43:31.549,-0.64502,-0.72119,0.14917;
19:43:31.559,-0.63062,-0.73755,0.13599;
19:43:31.569,-0.62573,-0.74683,0.12329;
19:43:31.579,-0.62524,-0.74170,0.10718;
19:43:31.589,-0.62549,-0.73901,0.10254;
19:43:31.599,-0.63745,-0.74390,0.11182;
19:43:31.609,-0.64941,-0.74609,0.11694;
19:43:31.619,-0.64868,-0.74854,0.11060;
19:43:31.629,-0.63696,-0.75195,0.09155;
19:43:31.639,-0.62231,-0.74512,0.07080;
19:43:31.649,-0.60547,-0.74170,0.08032;
19:43:31.659,-0.60254,-0.74878,0.15161;
19:43:31.669,-0.63843,-0.74585,0.10010;
19:43:31.679,-0.66895,-0.73364,0.16406;
19:43:31.689,-0.68066,-0.74048,0.16431;
19:43:31.699,-0.69556,-0.73291,0.11133;
19:43:31.709,-0.68701,-0.72241,0.14917;
19:43:31.719,-0.67944,-0.72925,0.20190;
19:43:31.729,-0.67188,-0.73438,0.17700;
19:43:31.739,-0.64771,-0.73755,0.10864;
19:43:31.749,-0.64209,-0.73145,0.13843;
19:43:31.759,-0.64258,-0.73364,0.14233;
19:43:31.769,-0.64355,-0.73706,0.12939;
19:43:31.779,-0.63965,-0.74023,0.11182;
19:43:31.789,-0.63721,-0.74609,0.08594;
19:43:31.799,-0.63550,-0.73267,0.08447;
19:43:31.809,-0.63721,-0.71680,0.11841;
19:43:31.819,-0.64990,-0.71973,0.15991;
19:43:31.829,-0.65186,-0.73169,0.16846;
19:43:31.839,-0.65845,-0.74561,0.14893;
19:43:31.849,-0.66675,-0.73340,0.11646;
19:43:31.859,-0.67065,-0.72510,0.09180;
19:43:31.869,-0.67822,-0.73218,0.08594;
19:43:31.879,-0.67090,-0.73413,0.09058;
19:43:31.889,-0.66943,-0.73706,0.08984;
19:43:31.899,-0.68140,-0.73682,0.07666;
19:43:31.909,-0.67725,-0.73584,0.06787;
19:43:31.919,-0.66748,-0.73950,0.07178;
19:43:31.929,-0.67090,-0.72656,0.10547;
19:43:31.939,-0.67358,-0.72510,0.15015;
19:43:31.949,-0.67334,-0.72583,0.17822;
19:43:31.959,-0.67944,-0.72852,0.18042;
19:43:31.969,-0.67749,-0.74048,0.14429;
19:43:31.979,-0.68164,-0.73218,0.08643;
19:43:31.989,-0.69019,-0.73804,0.05615;
19:43:31.999,-0.68359,-0.73999,0.07007;
19:43:32.009,-0.68433,-0.72754,0.11646;
19:43:32.019,-0.68481,-0.72925,0.15674;
19:43:32.029,-0.67310,-0.73096,0.15796;
19:43:32.039,-0.67188,-0.73242,0.12939;
19:43:32.049,-0.66284,-0.73779,0.09375;
19:43:32.059,-0.66113,-0.74146,0.08398;
19:43:32.069,-0.65698,-0.74048,0.10376;
19:43:32.079,-0.64600,-0.74023,0.13477;
19:43:32.089,-0.64624,-0.73730,0.15601;
19:43:32.099,-0.64380,-0.73584,0.15430;
19:43:32.109,-0.63623,-0.73413,0.13867;
19:43:32.119,-0.62354,-0.73657,0.11890;
19:43:32.129,-0.60718,-0.74341,0.09521;
19:43:32.139,-0.58911,-0.74365,0.08130;
19:43:32.149,-0.57837,-0.73950,0.08984;
19:43:32.159,-0.57104,-0.73975,0.11865;
19:43:32.169,-0.57886,-0.73730,0.15771;
19:43:32.179,-0.59546,-0.73267,0.18530;
19:43:32.189,-0.60376,-0.73804,0.18823;
19:43:32.199,-0.61353,-0.74609,0.16748;
19:43:32.209,-0.62158,-0.74463,0.14966;
19:43:32.219,-0.62061,-0.74219,0.12891;
19:43:32.229,-0.62378,-0.74658,0.09668;
19:43:32.239,-0.63013,-0.75122,0.07910;
19:43:32.249,-0.64136,-0.74756,0.08179;
19:43:32.259,-0.65405,-0.74170,0.09619;
19:43:32.269,-0.66504,-0.73804,0.11914;
19:43:32.279,-0.68359,-0.73462,0.14551;
19:43:32.289,-0.69849,-0.73340,0.15210;
19:43:32.299,-0.70972,-0.74292,0.13428;
19:43:32.309,-0.71338,-0.74438,0.10645;
19:43:32.319,-0.69775,-0.73950,0.09668;
19:43:32.329,-0.67358,-0.74390,0.10693;
19:43:32.339,-0.64941,-0.73364,0.13306;
19:43:32.349,-0.63672,-0.73706,0.16504;
19:43:32.359,-0.63208,-0.74780,0.17017;
19:43:32.369,-0.62598,-0.74756,0.15479;
19:43:32.379,-0.62988,-0.74976,0.13281;
19:43:32.389,-0.63306,-0.74292,0.12622;
19:43:32.399,-0.63550,-0.74268,0.13867;
19:43:32.409,-0.64038,-0.73877,0.15967;
19:43:32.419,-0.63916,-0.74170,0.17261;
19:43:32.429,-0.64404,-0.74927,0.16016;
19:43:32.439,-0.64355,-0.74268,0.12793;
19:43:32.449,-0.63379,-0.74683,0.09839;
19:43:32.459,-0.61743,-0.75000,0.09595;
19:43:32.469,-0.61646,-0.74463,0.10913;
19:43:32.479,-0.62988,-0.74390,0.11841;
19:43:32.489,-0.64355,-0.74487,0.13062;
19:43:32.499,-0.66284,-0.74097,0.14453;
19:43:32.509,-0.67603,-0.73389,0.15796;
19:43:32.519,-0.68823,-0.72778,0.16602;
19:43:32.529,-0.69751,-0.73120,0.16113;
19:43:32.539,-0.69751,-0.73853,0.14087;
19:43:32.549,-0.67700,-0.73120,0.10718;
19:43:32.559,-0.65503,-0.72559,0.09839;
19:43:32.569,-0.65332,-0.73145,0.11060;
19:43:32.579,-0.65210,-0.73560,0.12183;
19:43:32.589,-0.66846,-0.72510,0.12744;
19:43:32.599,-0.63525,-0.72217,0.14136;
19:43:32.609,-0.63403,-0.72217,0.13452;
19:43:32.619,-0.63794,-0.72900,0.14282;
19:43:32.629,-0.63989,-0.72974,0.15942;
19:43:32.639,-0.64063,-0.72412,0.16919;
19:43:32.649,-0.63696,-0.71851,0.16406;
19:43:32.659,-0.64526,-0.73486,0.14795;
19:43:32.669,-0.65137,-0.74243,0.12671;
19:43:32.679,-0.64722,-0.73828,0.12012;
19:43:32.689,-0.64624,-0.74365,0.13232;
19:43:32.699,-0.64258,-0.73438,0.13672;
19:43:32.709,-0.65698,-0.74341,0.14575;
19:43:32.719,-0.66504,-0.75317,0.15381;
19:43:32.729,-0.67188,-0.74585,0.13696;
19:43:32.739,-0.67773,-0.74487,0.11548;
19:43:32.749,-0.67358,-0.74170,0.12695;
19:43:32.759,-0.66699,-0.74390,0.15698;
19:43:32.769,-0.66211,-0.74609,0.16870;
19:43:32.779,-0.66333,-0.74951,0.16772;
19:43:32.789,-0.64673,-0.75317,0.15161;
19:43:32.799,-0.63037,-0.74976,0.12598;
19:43:32.809,-0.61499,-0.75049,0.12231;
19:43:32.819,-0.60474,-0.75024,0.12646;
19:43:32.829,-0.59888,-0.75195,0.14233;
19:43:32.839,-0.59448,-0.75391,0.16113;
19:43:32.849,-0.59546,-0.74585,0.16260;
19:43:32.859,-0.61792,-0.74634,0.15942;
19:43:32.869,-0.63403,-0.74829,0.13916;
19:43:32.879,-0.63867,-0.74561,0.12720;
19:43:32.889,-0.65137,-0.75244,0.12402;
19:43:32.899,-0.64917,-0.74976,0.12158;
19:43:32.909,-0.65088,-0.75439,0.12256;
19:43:32.919,-0.65796,-0.74927,0.11816;
19:43:32.929,-0.65942,-0.73926,0.12842;
19:43:32.939,-0.66504,-0.74194,0.13892;
19:43:32.949,-0.65698,-0.73706,0.14795;
19:43:32.959,-0.65405,-0.73535,0.11792;
19:43:32.969,-0.65747,-0.72729,0.08032;
19:43:32.979,-0.65601,-0.73340,0.08936;
19:43:32.989,-0.64868,-0.71753,0.09814;
19:43:32.999,-0.67627,-0.70996,0.11206;
19:43:33.009,-0.69019,-0.72559,0.10645;
19:43:33.019,-0.70166,-0.72852,0.09351;
19:43:33.029,-0.70142,-0.71729,0.08765;
19:43:33.039,-0.69727,-0.71045,0.08374;
19:43:33.049,-0.69507,-0.71558,0.10278;
19:43:33.059,-0.68970,-0.72852,0.12939;
19:43:33.069,-0.67627,-0.73120,0.13159;
19:43:33.079,-0.66772,-0.72559,0.11133;
19:43:33.089,-0.66431,-0.72852,0.09009;
19:43:33.099,-0.66284,-0.72900,0.08716;
19:43:33.109,-0.66919,-0.72607,0.10498;
19:43:33.119,-0.68042,-0.72290,0.14819;
19:43:33.129,-0.68945,-0.71753,0.18433;
19:43:33.139,-0.69751,-0.71704,0.19556;
19:43:33.149,-0.69946,-0.72632,0.17432;
19:43:33.159,-0.69556,-0.72461,0.13599;
19:43:33.169,-0.68359,-0.71924,0.11353;
19:43:33.179,-0.67334,-0.71509,0.12817;
19:43:33.189,-0.66724,-0.71899,0.15967;
19:43:33.199,-0.66357,-0.73267,0.17358;
19:43:33.209,-0.67944,-0.72583,0.15381;
19:43:33.219,-0.68823,-0.72095,0.11108;
19:43:33.229,-0.69556,-0.71582,0.07593;
19:43:33.239,-0.70459,-0.70581,0.07104;
19:43:33.249,-0.70874,-0.70581,0.10669;
19:43:33.259,-0.70190,-0.70117,0.13525;
19:43:33.269,-0.70117,-0.68921,0.13818;
19:43:33.279,-0.71753,-0.69849,0.13013;
19:43:33.289,-0.72314,-0.71094,0.10815;
19:43:33.299,-0.71997,-0.70483,0.08081;
19:43:33.309,-0.70874,-0.69824,0.06543;
19:43:33.319,-0.70825,-0.70190,0.06372;
19:43:33.329,-0.70190,-0.71069,0.05786;
19:43:33.339,-0.69189,-0.71191,0.05493;
19:43:33.349,-0.67773,-0.70850,0.06152;
19:43:33.359,-0.65723,-0.70923,0.07202;
19:43:33.369,-0.64111,-0.71094,0.07983;
19:43:33.379,-0.63672,-0.70435,0.08984;
19:43:33.389,-0.63574,-0.70313,0.11304;
19:43:33.399,-0.62988,-0.71167,0.12329;
19:43:33.409,-0.63647,-0.72681,0.10791;
19:43:33.419,-0.62549,-0.73926,0.08667;
19:43:33.429,-0.61938,-0.73486,0.06128;
19:43:33.439,-0.61890,-0.72192,0.03564;
19:43:33.449,-0.62061,-0.72046,0.02881;
19:43:33.459,-0.62427,-0.72144,0.05127;
19:43:33.469,-0.63428,-0.71899,0.08105;
19:43:33.479,-0.65503,-0.71753,0.09619;
19:43:33.489,-0.66846,-0.70483,0.10254;
19:43:33.499,-0.68237,-0.69019,0.11792;
19:43:33.509,-0.70581,-0.68530,0.13574;
19:43:33.519,-0.72217,-0.68774,0.14160;
19:43:33.529,-0.73682,-0.69800,0.13867;
19:43:33.539,-0.74072,-0.70044,0.12524;
19:43:33.549,-0.73242,-0.67896,0.09839;
19:43:33.559,-0.73584,-0.69116,0.06177;
19:43:33.569,-0.72217,-0.69800,0.05615;
19:43:33.579,-0.71948,-0.69873,0.09082;
19:43:33.589,-0.72119,-0.70459,0.13794;
19:43:33.599,-0.71851,-0.70142,0.16626;
19:43:33.609,-0.71021,-0.70825,0.16235;
19:43:33.619,-0.69116,-0.70093,0.12915;
19:43:33.629,-0.67993,-0.70581,0.10205;
19:43:33.639,-0.66895,-0.71997,0.09985;
19:43:33.649,-0.65112,-0.73096,0.11646;
19:43:33.659,-0.63892,-0.73584,0.13940;
19:43:33.669,-0.63721,-0.74072,0.13281;
19:43:33.679,-0.63574,-0.74341,0.09985;
19:43:33.689,-0.63306,-0.74805,0.06372;
19:43:33.699,-0.63232,-0.74878,0.05908;
19:43:33.709,-0.63965,-0.73877,0.07959;
19:43:33.719,-0.65405,-0.73193,0.10449;
19:43:33.729,-0.66602,-0.72095,0.10034;
19:43:33.739,-0.68726,-0.70972,0.09277;
19:43:33.749,-0.69214,-0.69019,0.12158;
19:43:33.759,-0.70776,-0.67529,0.16992;
19:43:33.769,-0.73413,-0.68848,0.18481;
19:43:33.779,-0.72437,-0.69751,0.17310;
19:43:33.789,-0.72681,-0.70020,0.14307;
19:43:33.799,-0.72998,-0.69971,0.10547;
19:43:33.809,-0.72314,-0.70337,0.08057;
19:43:33.819,-0.71655,-0.71875,0.07910;
19:43:33.829,-0.69751,-0.71558,0.08472;
19:43:33.839,-0.68628,-0.70166,0.10620;
19:43:33.849,-0.68408,-0.69727,0.13574;
19:43:33.859,-0.68579,-0.70410,0.14551;
19:43:33.869,-0.68188,-0.71436,0.12793;
19:43:33.879,-0.67871,-0.71216,0.09863;
19:43:33.889,-0.68091,-0.70703,0.07788;
19:43:33.899,-0.67480,-0.71631,0.07837;
19:43:33.909,-0.65771,-0.73120,0.07813;
19:43:33.919,-0.65601,-0.73486,0.07104;
19:43:33.929,-0.64917,-0.73364,0.06592;
19:43:33.939,-0.63940,-0.73364,0.06006;
19:43:33.949,-0.63965,-0.73120,0.06763;
19:43:33.959,-0.63379,-0.73315,0.09155;
19:43:33.969,-0.64355,-0.72778,0.12378;
19:43:33.979,-0.66333,-0.71729,0.13623;
19:43:33.989,-0.68774,-0.71655,0.13354;
19:43:33.999,-0.69702,-0.72241,0.11963;
19:43:34.009,-0.69604,-0.72095,0.09912;
19:43:34.019,-0.69385,-0.72095,0.09277;
19:43:34.029,-0.68481,-0.72290,0.09375;
19:43:34.039,-0.67603,-0.72461,0.09961;
19:43:34.049,-0.67139,-0.71851,0.10962;
19:43:34.059,-0.67236,-0.71362,0.12012;
19:43:34.069,-0.67822,-0.71484,0.12256;
19:43:34.079,-0.68604,-0.71826,0.12671;
19:43:34.089,-0.68921,-0.72119,0.12842;
19:43:34.099,-0.68848,-0.71875,0.13428;
19:43:34.109,-0.67554,-0.72363,0.13110;
19:43:34.119,-0.66431,-0.72852,0.12305;
19:43:34.129,-0.66553,-0.72900,0.10596;
19:43:34.139,-0.66992,-0.73120,0.08594;
19:43:34.149,-0.66626,-0.73242,0.07788;
19:43:34.159,-0.66309,-0.73535,0.07275;
19:43:34.169,-0.65967,-0.73511,0.07813;
19:43:34.179,-0.65454,-0.72632,0.10840;
19:43:34.189,-0.65649,-0.72388,0.14233;
19:43:34.199,-0.66064,-0.72314,0.14844;
19:43:34.209,-0.66309,-0.72803,0.13745;
19:43:34.219,-0.66699,-0.73218,0.11108;
19:43:34.229,-0.65942,-0.73560,0.07837;
19:43:34.239,-0.65308,-0.74048,0.05396;
19:43:34.249,-0.64185,-0.74072,0.04370;
19:43:34.259,-0.63574,-0.74268,0.01318;
19:43:34.269,-0.64673,-0.74634,0.05811;
19:43:34.279,-0.65210,-0.72461,0.11841;
19:43:34.289,-0.67139,-0.72412,0.09351;
19:43:34.299,-0.66772,-0.72998,0.05981;
19:43:34.309,-0.67236,-0.73462,0.04980;
19:43:34.319,-0.67041,-0.69971,0.09229;
19:43:34.329,-0.67847,-0.72046,0.16772;
19:43:34.339,-0.67651,-0.72144,0.20166;
19:43:34.349,-0.67212,-0.71655,0.20996;
19:43:34.359,-0.67310,-0.71460,0.18945;
19:43:34.369,-0.68433,-0.71509,0.15625;
19:43:34.379,-0.68921,-0.70703,0.13354;
19:43:34.389,-0.68774,-0.70776,0.13818;
19:43:34.399,-0.69434,-0.72632,0.15479;
19:43:34.409,-0.68506,-0.72144,0.15820;
19:43:34.419,-0.68970,-0.72437,0.13989;
19:43:34.429,-0.69312,-0.73096,0.09717;
19:43:34.439,-0.68750,-0.73413,0.05566;
19:43:34.449,-0.69067,-0.74268,0.03125;
19:43:34.459,-0.67798,-0.74487,0.01880;
19:43:34.469,-0.65845,-0.74390,0.03003;
19:43:34.479,-0.64893,-0.73682,0.06641;
19:43:34.489,-0.65210,-0.73462,0.10913;
19:43:34.499,-0.65283,-0.73340,0.12573;
19:43:34.509,-0.64746,-0.74219,0.11157;
19:43:34.519,-0.63550,-0.74634,0.08203;
19:43:34.529,-0.62695,-0.74438,0.04492;
19:43:34.539,-0.62817,-0.74683,0.01807;
19:43:34.549,-0.63647,-0.75586,0.01147;
19:43:34.559,-0.64014,-0.75415,0.02295;
19:43:34.569,-0.64624,-0.74707,0.03540;
19:43:34.579,-0.65771,-0.74512,0.05176;
19:43:34.589,-0.66553,-0.73999,0.06763;
19:43:34.599,-0.66309,-0.73853,0.07690;
19:43:34.609,-0.66187,-0.73608,0.08423;
19:43:34.619,-0.66553,-0.73706,0.08887;
19:43:34.629,-0.66260,-0.73096,0.09180;
19:43:34.639,-0.66846,-0.73486,0.09180;
19:43:34.649,-0.67090,-0.73828,0.09546;
19:43:34.659,-0.66650,-0.73169,0.10645;
19:43:34.669,-0.66675,-0.73145,0.11401;
19:43:34.679,-0.66553,-0.73364,0.11133;
19:43:34.689,-0.65894,-0.73804,0.10010;
19:43:34.699,-0.65112,-0.73975,0.08691;
19:43:34.709,-0.64795,-0.74194,0.07178;
19:43:34.719,-0.64819,-0.74097,0.04712;
19:43:34.729,-0.64575,-0.74316,0.03076;
19:43:34.739,-0.64404,-0.74097,0.02783;
19:43:34.749,-0.64697,-0.73755,0.04858;
19:43:34.759,-0.65186,-0.73633,0.08716;
19:43:34.769,-0.65747,-0.73315,0.12305;
19:43:34.779,-0.65552,-0.73145,0.14941;
19:43:34.789,-0.65625,-0.73218,0.15527;
19:43:34.799,-0.65430,-0.73730,0.12817;
19:43:34.809,-0.65332,-0.73633,0.07959;
19:43:34.819,-0.66528,-0.73657,0.03955;
19:43:34.829,-0.67163,-0.74243,0.01831;
19:43:34.839,-0.67578,-0.74268,0.01074;
19:43:34.849,-0.67383,-0.73560,0.02197;
19:43:34.859,-0.66577,-0.73047,0.05444;
19:43:34.869,-0.66235,-0.73267,0.07666;
19:43:34.879,-0.66333,-0.73706,0.08423;
19:43:34.889,-0.65869,-0.73804,0.07886;
19:43:34.899,-0.65186,-0.73608,0.06665;
19:43:34.909,-0.65210,-0.74170,0.06299;
19:43:34.919,-0.65283,-0.74390,0.07129;
19:43:34.929,-0.65527,-0.73608,0.08984;
19:43:34.939,-0.65723,-0.73022,0.11255;
19:43:34.949,-0.66016,-0.73242,0.13208;
19:43:34.959,-0.66113,-0.73999,0.12817;
19:43:34.969,-0.65283,-0.73853,0.10767;
19:43:34.979,-0.64282,-0.73486,0.08716;
19:43:34.989,-0.63940,-0.73828,0.07471;
19:43:34.999,-0.64453,-0.74194,0.06079;
19:43:35.009,-0.65063,-0.73950,0.04736;
19:43:35.019,-0.65381,-0.73877,0.05078;
19:43:35.029,-0.65381,-0.73682,0.06519;
19:43:35.039,-0.65063,-0.73242,0.08154;
19:43:35.049,-0.66309,-0.73120,0.10571;
19:43:35.059,-0.67407,-0.72876,0.11719;
19:43:35.069,-0.68433,-0.72778,0.11279;
19:43:35.079,-0.68774,-0.72925,0.10254;
19:43:35.089,-0.67993,-0.73926,0.09131;
19:43:35.099,-0.66748,-0.73828,0.08301;
19:43:35.109,-0.65430,-0.73340,0.06982;
19:43:35.119,-0.65161,-0.73682,0.06543;
19:43:35.129,-0.65088,-0.73755,0.06079;
19:43:35.139,-0.65332,-0.73706,0.05518;
19:43:35.149,-0.65186,-0.73657,0.06299;
19:43:35.159,-0.65967,-0.73804,0.07666;
19:43:35.169,-0.66699,-0.73291,0.07715;
19:43:35.179,-0.66895,-0.73315,0.06396;
19:43:35.189,-0.65283,-0.73633,0.06079;
19:43:35.199,-0.64355,-0.73901,0.08032;
19:43:35.209,-0.64233,-0.73438,0.08643;
19:43:35.219,-0.64526,-0.74146,0.07690;
19:43:35.229,-0.64673,-0.73706,0.07129;
19:43:35.239,-0.65234,-0.73193,0.07617;
19:43:35.249,-0.66284,-0.72583,0.09692;
19:43:35.259,-0.67896,-0.72559,0.12134;
19:43:35.269,-0.68555,-0.72070,0.12891;
19:43:35.279,-0.68945,-0.72510,0.11743;
19:43:35.289,-0.68872,-0.73096,0.09790;
19:43:35.299,-0.68140,-0.72778,0.08228;
19:43:35.309,-0.66895,-0.72949,0.08228;
19:43:35.319,-0.65283,-0.73486,0.08862;
19:43:35.329,-0.64722,-0.73535,0.08960;
19:43:35.339,-0.65405,-0.73633,0.08057;
19:43:35.349,-0.66040,-0.73828,0.06421;
19:43:35.359,-0.66528,-0.73511,0.06104;
19:43:35.369,-0.66553,-0.73218,0.07104;
19:43:35.379,-0.67725,-0.73364,0.10278;
19:43:35.389,-0.68115,-0.73535,0.12769;
19:43:35.399,-0.67261,-0.73511,0.12866;
19:43:35.409,-0.66309,-0.73901,0.11670;
19:43:35.419,-0.65381,-0.74023,0.08423;
19:43:35.429,-0.64600,-0.73730,0.05225;
19:43:35.439,-0.64111,-0.73853,0.03638;
19:43:35.449,-0.64160,-0.73853,0.04150;
19:43:35.459,-0.63599,-0.73462,0.06348;
19:43:35.469,-0.63599,-0.73145,0.08667;
19:43:35.479,-0.64404,-0.73462,0.09473;
19:43:35.489,-0.65088,-0.73779,0.07861;
19:43:35.499,-0.64844,-0.73877,0.06323;
19:43:35.509,-0.65015,-0.73779,0.05615;
19:43:35.519,-0.65967,-0.73120,0.05249;
19:43:35.529,-0.67627,-0.72803,0.05688;
19:43:35.539,-0.68848,-0.72437,0.07813;
19:43:35.549,-0.69629,-0.72290,0.09497;
19:43:35.559,-0.69995,-0.72339,0.10400;
19:43:35.569,-0.69336,-0.72437,0.11035;
19:43:35.579,-0.67969,-0.72803,0.09570;
19:43:35.589,-0.66333,-0.72900,0.07593;
19:43:35.599,-0.65112,-0.73438,0.06982;
19:43:35.609,-0.64673,-0.73340,0.07153;
19:43:35.619,-0.64893,-0.72949,0.08154;
19:43:35.629,-0.65381,-0.73169,0.09985;
19:43:35.639,-0.66357,-0.73193,0.10693;
19:43:35.649,-0.66772,-0.73096,0.10010;
19:43:35.659,-0.66992,-0.73389,0.08472;
19:43:35.669,-0.66284,-0.73608,0.06592;
19:43:35.679,-0.65283,-0.73755,0.05469;
19:43:35.689,-0.66357,-0.73486,0.09058;
19:43:35.699,-0.66382,-0.73242,0.11279;
19:43:35.709,-0.65210,-0.73364,0.11011;
19:43:35.719,-0.66357,-0.72998,0.08545;
19:43:35.729,-0.68652,-0.72827,0.12158;
19:43:35.739,-0.67554,-0.72925,0.13599;
19:43:35.749,-0.64844,-0.73438,0.08203;
19:43:35.759,-0.63965,-0.73315,0.05200;
19:43:35.769,-0.66919,-0.72974,0.10327;
19:43:35.779,-0.68481,-0.72754,0.12402;
19:43:35.789,-0.68896,-0.72437,0.12500;
19:43:35.799,-0.68457,-0.72705,0.10205;
19:43:35.809,-0.67554,-0.72656,0.06421;
19:43:35.819,-0.66919,-0.73633,0.03516;
19:43:35.829,-0.66333,-0.74219,0.02148;
19:43:35.839,-0.65454,-0.74146,0.02393;
19:43:35.849,-0.64771,-0.73438,0.05103;
19:43:35.859,-0.64404,-0.73145,0.09497;
19:43:35.869,-0.64380,-0.72778,0.12842;
19:43:35.879,-0.64868,-0.72070,0.13184;
19:43:35.889,-0.66138,-0.72534,0.11719;
19:43:35.899,-0.66797,-0.72900,0.10376;
19:43:35.909,-0.66895,-0.72778,0.10083;
19:43:35.919,-0.67993,-0.72681,0.10645;
19:43:35.929,-0.68164,-0.72876,0.11230;
19:43:35.939,-0.68237,-0.72339,0.12280;
19:43:35.949,-0.68945,-0.72705,0.12354;
19:43:35.959,-0.68408,-0.73462,0.10547;
19:43:35.969,-0.67017,-0.73145,0.08667;
19:43:35.979,-0.66577,-0.72705,0.07715;
19:43:35.989,-0.65845,-0.72412,0.08008;
19:43:35.999,-0.64966,-0.73364,0.08862;
19:43:36.009,-0.64429,-0.73633,0.08765;
19:43:36.019,-0.64795,-0.72925,0.06616;
19:43:36.029,-0.65234,-0.72583,0.04321;
19:43:36.039,-0.65723,-0.72656,0.03345;
19:43:36.049,-0.67407,-0.73071,0.04614;
19:43:36.059,-0.68042,-0.73291,0.06812;
19:43:36.069,-0.68066,-0.72656,0.07300;
19:43:36.079,-0.67676,-0.71777,0.06665;
19:43:36.089,-0.67944,-0.72266,0.05347;
19:43:36.099,-0.68530,-0.73364,0.04565;
19:43:36.109,-0.68140,-0.72998,0.04785;
19:43:36.119,-0.67407,-0.73071,0.05322;
19:43:36.129,-0.67065,-0.73096,0.06226;
19:43:36.139,-0.66431,-0.72827,0.06372;
19:43:36.149,-0.65723,-0.72729,0.04834;
19:43:36.159,-0.65625,-0.72363,0.03223;
19:43:36.169,-0.66064,-0.72656,0.03003;
19:43:36.179,-0.66528,-0.73169,0.04224;
19:43:36.189,-0.66113,-0.72998,0.07251;
19:43:36.199,-0.67212,-0.72290,0.10742;
19:43:36.209,-0.67798,-0.72461,0.12500;
19:43:36.219,-0.67725,-0.72925,0.10693;
19:43:36.229,-0.67627,-0.72461,0.07959;
19:43:36.239,-0.66870,-0.72485,0.06445;
19:43:36.249,-0.66138,-0.73145,0.06250;
19:43:36.259,-0.65747,-0.73438,0.07642;
19:43:36.269,-0.65674,-0.72656,0.09253;
19:43:36.279,-0.66064,-0.71680,0.09814;
19:43:36.289,-0.67017,-0.72583,0.09741;
19:43:36.299,-0.67065,-0.72363,0.09180;
19:43:36.309,-0.67114,-0.72339,0.08276;
19:43:36.319,-0.67041,-0.72607,0.07568;
19:43:36.329,-0.66772,-0.72778,0.07349;
19:43:36.339,-0.66357,-0.73389,0.07690;
19:43:36.349,-0.65820,-0.73169,0.07251;
19:43:36.359,-0.66040,-0.72095,0.06982;
19:43:36.369,-0.67212,-0.73145,0.07275;
19:43:36.379,-0.66675,-0.73535,0.06836;
19:43:36.389,-0.66333,-0.72974,0.06641;
19:43:36.399,-0.66479,-0.73193,0.06860;
19:43:36.409,-0.66284,-0.72876,0.07275;
19:43:36.419,-0.66187,-0.73560,0.07520;
19:43:36.429,-0.64844,-0.73560,0.07495;
19:43:36.439,-0.64111,-0.73608,0.06543;
19:43:36.449,-0.64209,-0.73950,0.05420;
19:43:36.459,-0.64917,-0.73682,0.04419;
19:43:36.469,-0.66113,-0.73145,0.04712;
19:43:36.479,-0.67480,-0.72607,0.06836;
19:43:36.489,-0.68384,-0.71826,0.09937;
19:43:36.499,-0.69434,-0.71680,0.13867;
19:43:36.509,-0.69800,-0.72363,0.15210;
19:43:36.519,-0.69482,-0.72974,0.12720;
19:43:36.529,-0.68555,-0.73169,0.08472;
19:43:36.539,-0.67212,-0.72461,0.05029;
19:43:36.549,-0.67261,-0.72412,0.03906;
19:43:36.559,-0.67163,-0.72998,0.05371;
19:43:36.569,-0.67139,-0.72144,0.08179;
19:43:36.579,-0.67480,-0.71997,0.10278;
19:43:36.589,-0.67627,-0.72339,0.10767;
19:43:36.599,-0.67456,-0.72803,0.09204;
19:43:36.609,-0.66528,-0.73193,0.07153;
19:43:36.619,-0.65991,-0.73145,0.06812;
19:43:36.629,-0.65503,-0.73022,0.08154;
19:43:36.639,-0.65527,-0.72656,0.11572;
19:43:36.649,-0.67554,-0.73022,0.14624;
19:43:36.659,-0.67896,-0.72778,0.14233;
19:43:36.669,-0.67798,-0.73364,0.10449;
19:43:36.679,-0.67017,-0.73584,0.05688;
19:43:36.689,-0.65942,-0.73145,0.02661;
19:43:36.699,-0.64966,-0.73193,0.03491;
19:43:36.709,-0.64404,-0.73096,0.05957;
19:43:36.719,-0.65479,-0.73657,0.07471;
19:43:36.729,-0.65894,-0.73535,0.06885;
19:43:36.739,-0.66089,-0.73755,0.04395;
19:43:36.749,-0.69995,-0.71777,0.06641;
19:43:36.759,-0.70142,-0.72998,0.07178;
19:43:36.769,-0.69409,-0.72998,0.08130;
19:43:36.779,-0.68140,-0.73169,0.08862;
19:43:36.789,-0.67139,-0.73340,0.07666;
19:43:36.799,-0.66577,-0.72900,0.05273;
19:43:36.809,-0.66211,-0.72974,0.03784;
19:43:36.819,-0.66284,-0.73413,0.04565;
19:43:36.829,-0.66870,-0.73267,0.07739;
19:43:36.839,-0.67578,-0.72949,0.10889;
19:43:36.849,-0.68213,-0.73120,0.12720;
19:43:36.859,-0.68018,-0.73682,0.12354;
19:43:36.869,-0.66797,-0.73779,0.09595;
19:43:36.879,-0.64893,-0.74170,0.06641;
19:43:36.889,-0.63379,-0.74048,0.05444;
19:43:36.899,-0.62134,-0.74292,0.05957;
19:43:36.909,-0.61060,-0.74438,0.05981;
19:43:36.919,-0.61963,-0.73730,0.05664;
19:43:36.929,-0.63086,-0.73267,0.04932;
19:43:36.939,-0.64307,-0.72876,0.04834;
19:43:36.949,-0.65649,-0.72632,0.06909;
19:43:36.959,-0.67456,-0.72461,0.08813;
19:43:36.969,-0.69043,-0.72461,0.09546;
19:43:36.979,-0.69751,-0.71655,0.10254;
19:43:36.989,-0.70703,-0.72021,0.10986;
19:43:36.999,-0.71265,-0.73047,0.11426;
19:43:37.009,-0.69922,-0.73047,0.10376;
19:43:37.019,-0.66333,-0.73730,0.03882;
19:43:37.029,-0.66919,-0.72681,0.05127;
19:43:37.039,-0.68970,-0.71753,0.03735;
19:43:37.049,-0.68799,-0.73218,0.06958;
19:43:37.059,-0.65625,-0.73926,0.10693;
19:43:37.069,-0.64868,-0.73486,0.06836;
19:43:37.079,-0.66211,-0.73804,0.05200;
19:43:37.089,-0.66309,-0.73828,0.06958;
19:43:37.099,-0.65991,-0.73364,0.05298;
19:43:37.109,-0.65796,-0.73535,0.04321;
19:43:37.119,-0.65039,-0.74048,0.05005;
19:43:37.129,-0.64209,-0.74072,0.05615;
19:43:37.139,-0.63892,-0.73633,0.07129;
19:43:37.149,-0.64722,-0.73071,0.09961;
19:43:37.159,-0.66382,-0.72827,0.10791;
19:43:37.169,-0.67139,-0.73022,0.08936;
19:43:37.179,-0.67383,-0.72607,0.07300;
19:43:37.189,-0.67578,-0.72510,0.06616;
19:43:37.199,-0.67896,-0.72974,0.07373;
19:43:37.209,-0.67114,-0.73071,0.08545;
19:43:37.219,-0.66602,-0.72998,0.08789;
19:43:37.229,-0.66235,-0.72949,0.08447;
19:43:37.239,-0.65454,-0.73364,0.07349;
19:43:37.249,-0.65039,-0.73877,0.06055;
19:43:37.259,-0.64624,-0.73267,0.05249;
19:43:37.269,-0.64844,-0.73047,0.05762;
19:43:37.279,-0.65967,-0.72778,0.07373;
19:43:37.289,-0.67285,-0.72583,0.09521;
19:43:37.299,-0.67407,-0.72998,0.09985;
19:43:37.309,-0.67065,-0.73145,0.08911;
19:43:37.319,-0.67212,-0.73047,0.06714;
19:43:37.329,-0.67749,-0.73657,0.04785;
19:43:37.339,-0.67920,-0.73950,0.04395;
19:43:37.349,-0.67651,-0.72925,0.05640;
19:43:37.359,-0.67334,-0.73413,0.07373;
19:43:37.369,-0.67188,-0.73364,0.08008;
19:43:37.379,-0.66479,-0.73364,0.07495;
19:43:37.389,-0.66064,-0.73779,0.06714;
19:43:37.399,-0.65454,-0.73560,0.06714;
19:43:37.409,-0.64941,-0.73853,0.07397;
19:43:37.419,-0.64673,-0.73975,0.07593;
19:43:37.429,-0.64185,-0.73828,0.07202;
19:43:37.439,-0.64087,-0.73853,0.06299;
19:43:37.449,-0.64355,-0.73804,0.05029;
19:43:37.459,-0.65259,-0.73706,0.05054;
19:43:37.469,-0.66260,-0.73535,0.05811;
19:43:37.479,-0.66968,-0.73218,0.06763;
19:43:37.489,-0.67700,-0.72998,0.08325;
19:43:37.499,-0.68384,-0.72827,0.08813;
19:43:37.509,-0.68188,-0.72803,0.09082;
19:43:37.519,-0.67725,-0.72583,0.08496;
19:43:37.529,-0.67065,-0.73120,0.07520;
19:43:37.539,-0.65747,-0.73657,0.07739;
19:43:37.549,-0.64941,-0.73730,0.06958;
19:43:37.559,-0.65576,-0.73438,0.06372;
19:43:37.569,-0.66821,-0.73364,0.06348;
19:43:37.579,-0.67017,-0.73267,0.06958;
19:43:37.589,-0.67041,-0.73438,0.07544;
19:43:37.599,-0.66260,-0.73438,0.07129;
19:43:37.609,-0.64893,-0.73828,0.05884;
19:43:37.619,-0.64209,-0.74194,0.04907;
19:43:37.629,-0.64014,-0.73804,0.05151;
19:43:37.639,-0.64502,-0.73901,0.05981;
19:43:37.649,-0.65112,-0.73999,0.06885;
19:43:37.659,-0.65649,-0.73853,0.07104;
19:43:37.669,-0.66064,-0.73633,0.06738;
19:43:37.679,-0.66382,-0.73438,0.05908;
19:43:37.689,-0.66309,-0.73218,0.06152;
19:43:37.699,-0.65894,-0.73364,0.07593;
19:43:37.709,-0.65601,-0.73193,0.07910;
19:43:37.719,-0.66724,-0.73315,0.07471;
19:43:37.729,-0.67578,-0.73242,0.07153;
19:43:37.739,-0.68091,-0.73193,0.06982;
19:43:37.749,-0.67993,-0.72925,0.07153;
19:43:37.759,-0.67334,-0.72388,0.08618;
19:43:37.769,-0.67212,-0.72656,0.10205;
19:43:37.779,-0.66406,-0.73340,0.10425;
19:43:37.789,-0.65308,-0.73901,0.08765;
19:43:37.799,-0.64990,-0.73901,0.06421;
19:43:37.809,-0.65454,-0.73560,0.05176;
19:43:37.819,-0.65747,-0.73560,0.04614;
19:43:37.829,-0.66040,-0.73584,0.05469;
19:43:37.839,-0.66357,-0.73511,0.07227;
19:43:37.849,-0.66284,-0.73804,0.08350;
19:43:37.859,-0.65625,-0.74097,0.08740;
19:43:37.869,-0.64331,-0.74194,0.08252;
19:43:37.879,-0.64380,-0.73657,0.06592;
19:43:37.889,-0.64868,-0.73413,0.05273;
19:43:37.899,-0.64819,-0.73633,0.06201;
19:43:37.909,-0.65356,-0.73633,0.07349;
19:43:37.919,-0.65967,-0.73218,0.07861;
19:43:37.929,-0.67212,-0.72876,0.08325;
19:43:37.939,-0.68726,-0.72925,0.08423;
19:43:37.949,-0.69458,-0.72852,0.08618;
19:43:37.959,-0.68530,-0.72949,0.07739;
19:43:37.969,-0.67456,-0.73340,0.06470;
19:43:37.979,-0.66211,-0.73291,0.04858;
19:43:37.989,-0.65527,-0.72876,0.04858;
19:43:37.999,-0.66064,-0.73096,0.07129;
19:43:38.009,-0.65674,-0.73071,0.08545;
19:43:38.019,-0.66235,-0.72876,0.09912;
19:43:38.029,-0.66577,-0.72729,0.10376;
19:43:38.039,-0.67285,-0.72900,0.10474;
19:43:38.049,-0.67114,-0.73096,0.10010;
19:43:38.059,-0.65820,-0.72998,0.08984;
19:43:38.069,-0.66040,-0.73267,0.09302;
19:43:38.079,-0.66040,-0.73267,0.10181;
19:43:38.089,-0.66382,-0.73584,0.10376;
19:43:38.099,-0.66992,-0.73364,0.09302;
19:43:38.109,-0.67700,-0.72363,0.08154;
19:43:38.119,-0.68677,-0.72363,0.08154;
19:43:38.129,-0.69067,-0.72852,0.09644;
19:43:38.139,-0.68994,-0.72632,0.10791;
19:43:38.149,-0.68701,-0.73267,0.10449;
19:43:38.159,-0.67236,-0.73389,0.08765;
19:43:38.169,-0.66113,-0.73145,0.06714;
19:43:38.179,-0.65771,-0.73633,0.05420;
19:43:38.189,-0.66016,-0.73389,0.04761;
19:43:38.199,-0.66113,-0.73364,0.04858;
19:43:38.209,-0.65894,-0.73389,0.05884;
19:43:38.219,-0.65625,-0.73218,0.06909;
19:43:38.229,-0.65674,-0.73267,0.07690;
19:43:38.239,-0.65918,-0.73315,0.08618;
19:43:38.249,-0.65698,-0.72974,0.08813;
19:43:38.259,-0.65723,-0.73340,0.07959;
19:43:38.269,-0.65137,-0.73267,0.07397;
19:43:38.279,-0.64575,-0.72754,0.08472;
19:43:38.289,-0.65210,-0.73340,0.09961;
19:43:38.299,-0.66235,-0.73145,0.10229;
19:43:38.309,-0.67944,-0.72729,0.10083;
19:43:38.319,-0.69067,-0.71899,0.09326;
19:43:38.329,-0.69312,-0.72290,0.08911;
19:43:38.339,-0.68970,-0.72681,0.08496;
19:43:38.349,-0.68213,-0.72021,0.07739;
19:43:38.359,-0.66968,-0.72534,0.06934;
19:43:38.369,-0.66504,-0.72852,0.07397;
19:43:38.379,-0.66455,-0.72852,0.07837;
19:43:38.389,-0.66455,-0.72949,0.07764;
19:43:38.399,-0.67261,-0.72876,0.07544;
19:43:38.409,-0.68384,-0.72192,0.11890;
19:43:38.419,-0.67432,-0.72876,0.12476;
19:43:38.429,-0.66724,-0.73901,0.08081;
19:43:38.439,-0.64526,-0.73364,0.06055;
19:43:38.449,-0.65649,-0.73096,0.06909;
19:43:38.459,-0.67041,-0.72510,0.10645;
19:43:38.469,-0.67969,-0.71948,0.07520;
19:43:38.479,-0.67212,-0.72754,0.03564;
19:43:38.489,-0.66699,-0.72070,0.05591;
19:43:38.499,-0.66748,-0.72681,0.09912;
19:43:38.509,-0.66602,-0.72559,0.12207;
19:43:38.519,-0.67529,-0.72046,0.11768;
19:43:38.529,-0.68237,-0.71777,0.09473;
19:43:38.539,-0.68555,-0.71655,0.07324;
19:43:38.549,-0.68555,-0.72217,0.07104;
19:43:38.559,-0.67188,-0.72583,0.07666;
19:43:38.569,-0.65845,-0.72998,0.08618;
19:43:38.579,-0.65845,-0.72510,0.08350;
19:43:38.589,-0.66870,-0.72119,0.06836;
19:43:38.599,-0.67993,-0.72217,0.06152;
19:43:38.609,-0.68481,-0.72412,0.05981;
19:43:38.619,-0.68945,-0.72217,0.06079;
19:43:38.629,-0.68994,-0.72241,0.07886;
19:43:38.639,-0.67627,-0.72607,0.10059;
19:43:38.649,-0.66846,-0.72681,0.12134;
19:43:38.659,-0.66504,-0.72534,0.12378;
19:43:38.669,-0.66064,-0.73169,0.10229;
19:43:38.679,-0.65625,-0.73438,0.08423;
19:43:38.689,-0.65308,-0.73315,0.07715;
19:43:38.699,-0.65503,-0.73486,0.08350;
19:43:38.709,-0.65991,-0.72827,0.09351;
19:43:38.719,-0.66650,-0.72607,0.09448;
19:43:38.729,-0.66846,-0.72437,0.09009;
19:43:38.739,-0.66846,-0.72778,0.08496;
19:43:38.749,-0.67041,-0.72778,0.09155;
19:43:38.759,-0.66504,-0.71997,0.10815;
19:43:38.769,-0.66138,-0.72168,0.13062;
19:43:38.779,-0.66992,-0.72461,0.13989;
19:43:38.789,-0.67725,-0.72754,0.12036;
19:43:38.799,-0.68481,-0.73389,0.08984;
19:43:38.809,-0.68628,-0.72803,0.06543;
19:43:38.819,-0.69092,-0.72681,0.06104;
19:43:38.829,-0.69263,-0.72900,0.08032;
19:43:38.839,-0.68555,-0.71973,0.10718;
19:43:38.849,-0.67407,-0.71973,0.11255;
19:43:38.859,-0.65894,-0.72510,0.08691;
19:43:38.869,-0.65454,-0.72852,0.06030;
19:43:38.879,-0.65308,-0.72803,0.04663;
19:43:38.889,-0.65454,-0.72363,0.04297;
19:43:38.899,-0.65356,-0.71558,0.06421;
19:43:38.909,-0.66235,-0.72437,0.09937;
19:43:38.919,-0.67432,-0.72559,0.11597;
19:43:38.929,-0.67505,-0.72632,0.10254;
19:43:38.939,-0.67261,-0.72241,0.08398;
19:43:38.949,-0.67188,-0.71777,0.07788;
19:43:38.959,-0.68042,-0.72266,0.07397;
19:43:38.969,-0.67627,-0.72046,0.07715;
19:43:38.979,-0.67529,-0.72461,0.08374;
19:43:38.989,-0.67749,-0.72705,0.09595;
19:43:38.999,-0.67603,-0.72705,0.10376;
19:43:39.009,-0.67334,-0.72266,0.09399;
19:43:39.019,-0.66675,-0.72119,0.08252;
19:43:39.029,-0.67432,-0.72144,0.07935;
19:43:39.039,-0.68091,-0.72241,0.08618;
19:43:39.049,-0.67871,-0.72876,0.09351;
19:43:39.059,-0.67310,-0.73022,0.09302;
19:43:39.069,-0.66626,-0.73218,0.08032;
19:43:39.079,-0.66064,-0.73462,0.06812;
19:43:39.089,-0.65894,-0.72803,0.06396;
19:43:39.099,-0.65845,-0.73022,0.07397;
19:43:39.109,-0.65942,-0.73608,0.08984;
19:43:39.119,-0.66162,-0.73486,0.11279;
19:43:39.129,-0.67432,-0.72900,0.13599;
19:43:39.139,-0.68164,-0.72876,0.13501;
19:43:39.149,-0.67993,-0.72974,0.11304;
19:43:39.159,-0.67505,-0.73413,0.08276;
19:43:39.169,-0.66455,-0.73755,0.05322;
19:43:39.179,-0.64795,-0.73560,0.04663;
19:43:39.189,-0.64209,-0.73535,0.06226;
19:43:39.199,-0.64551,-0.73608,0.08862;
19:43:39.209,-0.64673,-0.73657,0.11230;
19:43:39.219,-0.65283,-0.72998,0.12085;
19:43:39.229,-0.65527,-0.72803,0.11719;
19:43:39.239,-0.66113,-0.73486,0.09668;
19:43:39.249,-0.66284,-0.73657,0.07422;
19:43:39.259,-0.66553,-0.73633,0.06079;
19:43:39.269,-0.66748,-0.73340,0.06128;
19:43:39.279,-0.66650,-0.73706,0.07422;
19:43:39.289,-0.66650,-0.73755,0.08545;
19:43:39.299,-0.66260,-0.73364,0.08423;
19:43:39.309,-0.66479,-0.73511,0.07886;
19:43:39.319,-0.66406,-0.73218,0.07080;
19:43:39.329,-0.65796,-0.72900,0.07104;
19:43:39.339,-0.65869,-0.73389,0.08179;
19:43:39.349,-0.65820,-0.73706,0.09009;
19:43:39.359,-0.65527,-0.73633,0.08813;
19:43:39.369,-0.65991,-0.73975,0.07520;
19:43:39.379,-0.66748,-0.73218,0.05518;
19:43:39.389,-0.67041,-0.72974,0.04272;
19:43:39.399,-0.66772,-0.73657,0.05566;
19:43:39.409,-0.67236,-0.73975,0.07300;
19:43:39.419,-0.66748,-0.73438,0.07666;
19:43:39.429,-0.66431,-0.73315,0.07935;
19:43:39.439,-0.66772,-0.73730,0.08105;
19:43:39.449,-0.66138,-0.73145,0.07788;
19:43:39.459,-0.65137,-0.73608,0.07373;
19:43:39.469,-0.64917,-0.74414,0.06860;
19:43:39.479,-0.65112,-0.73975,0.06006;
19:43:39.489,-0.65063,-0.74341,0.05225;
19:43:39.499,-0.65381,-0.74780,0.04834;
19:43:39.509,-0.64868,-0.74341,0.03979;
19:43:39.519,-0.64380,-0.74390,0.03760;
19:43:39.529,-0.63989,-0.74463,0.03979;
19:43:39.539,-0.63672,-0.74365,0.04150;
19:43:39.549,-0.63647,-0.74414,0.03882;
19:43:39.559,-0.63843,-0.74390,0.04150;
19:43:39.569,-0.63574,-0.74072,0.04736;
19:43:39.579,-0.63843,-0.72900,0.07910;
19:43:39.589,-0.65405,-0.72705,0.13135;
19:43:39.599,-0.66772,-0.72681,0.14673;
19:43:39.609,-0.67773,-0.73389,0.12793;
19:43:39.619,-0.69067,-0.72998,0.09766;
19:43:39.629,-0.70386,-0.72510,0.07153;
19:43:39.639,-0.70605,-0.73047,0.06299;
19:43:39.649,-0.70361,-0.73413,0.08105;
19:43:39.659,-0.69385,-0.73096,0.10132;
19:43:39.669,-0.67554,-0.71753,0.10693;
19:43:39.679,-0.65210,-0.73633,0.10303;
19:43:39.689,-0.63574,-0.73633,0.08936;
19:43:39.699,-0.63208,-0.73584,0.07202;
19:43:39.709,-0.63086,-0.74414,0.06299;
19:43:39.719,-0.63696,-0.74146,0.05908;
19:43:39.729,-0.64844,-0.74463,0.06177;
19:43:39.739,-0.65430,-0.74121,0.06030;
19:43:39.749,-0.65942,-0.74048,0.05786;
19:43:39.759,-0.66113,-0.74048,0.06201;
19:43:39.769,-0.66162,-0.73975,0.06763;
19:43:39.779,-0.66626,-0.73950,0.07446;
19:43:39.789,-0.68213,-0.73486,0.06641;
19:43:39.799,-0.68237,-0.73169,0.10864;
19:43:39.809,-0.66357,-0.74268,0.11597;
19:43:39.819,-0.64673,-0.74634,0.07104;
19:43:39.829,-0.62622,-0.75098,0.04395;
19:43:39.839,-0.62378,-0.74365,0.03223;
19:43:39.849,-0.64966,-0.74170,0.06909;
19:43:39.859,-0.67676,-0.73145,0.10352;
19:43:39.869,-0.70166,-0.72998,0.12793;
19:43:39.879,-0.69653,-0.72827,0.12573;
19:43:39.889,-0.68408,-0.72803,0.13574;
19:43:39.899,-0.68066,-0.73633,0.12817;
19:43:39.909,-0.66748,-0.73877,0.09326;
19:43:39.919,-0.65698,-0.73682,0.04858;
19:43:39.929,-0.64966,-0.73535,0.02295;
19:43:39.939,-0.64087,-0.74243,0.01929;
19:43:39.949,-0.63281,-0.73755,0.03687;
19:43:39.959,-0.62695,-0.72705,0.06470;
19:43:39.969,-0.63330,-0.74365,0.08765;
19:43:39.979,-0.63501,-0.74438,0.08252;
19:43:39.989,-0.63770,-0.73804,0.06934;
19:43:39.999,-0.65015,-0.74316,0.07300;
19:43:40.009,-0.66479,-0.73877,0.07715;
19:43:40.019,-0.66626,-0.73999,0.07617;
19:43:40.029,-0.65381,-0.74390,0.07788;
19:43:40.039,-0.64038,-0.74146,0.07910;
19:43:40.049,-0.63208,-0.73853,0.07056;
19:43:40.059,-0.63159,-0.73755,0.07104;
19:43:40.069,-0.64307,-0.73022,0.07813;
19:43:40.079,-0.67236,-0.72339,0.10474;
19:43:40.089,-0.70264,-0.71973,0.14233;
19:43:40.099,-0.72510,-0.72852,0.15625;
19:43:40.109,-0.72852,-0.72852,0.13159;
19:43:40.119,-0.72070,-0.72168,0.09351;
19:43:40.129,-0.71680,-0.71875,0.08228;
19:43:40.139,-0.70605,-0.72681,0.10620;
19:43:40.149,-0.69019,-0.72925,0.12158;
19:43:40.159,-0.66455,-0.73022,0.11450;
19:43:40.169,-0.63843,-0.73291,0.09546;
19:43:40.179,-0.63232,-0.73047,0.06104;
19:43:40.189,-0.64404,-0.73584,0.04565;
19:43:40.199,-0.65039,-0.73853,0.06885;
19:43:40.209,-0.65283,-0.73682,0.10596;
19:43:40.219,-0.66064,-0.73462,0.13135;
19:43:40.229,-0.65942,-0.73291,0.13306;
19:43:40.239,-0.65625,-0.72949,0.13232;
19:43:40.249,-0.64893,-0.72852,0.12720;
19:43:40.259,-0.64941,-0.74023,0.10986;
19:43:40.269,-0.64697,-0.74731,0.07788;
19:43:40.279,-0.63647,-0.73438,0.04346;
19:43:40.289,-0.63232,-0.72705,0.03345;
19:43:40.299,-0.63428,-0.73267,0.04712;
19:43:40.309,-0.64868,-0.72852,0.07178;
19:43:40.319,-0.67896,-0.71631,0.08887;
19:43:40.329,-0.69702,-0.72046,0.08228;
19:43:40.339,-0.69946,-0.72314,0.07446;
19:43:40.349,-0.70239,-0.70825,0.09546;
19:43:40.359,-0.70703,-0.71240,0.13208;
19:43:40.369,-0.70728,-0.71460,0.15088;
19:43:40.379,-0.70361,-0.70850,0.13818;
19:43:40.389,-0.70850,-0.71069,0.10278;
19:43:40.399,-0.70801,-0.70923,0.07324;
19:43:40.409,-0.70483,-0.71704,0.07056;
19:43:40.419,-0.69751,-0.71533,0.08203;
19:43:40.429,-0.68921,-0.71411,0.09595;
19:43:40.439,-0.67554,-0.71802,0.10449;
19:43:40.449,-0.66626,-0.71777,0.09351;
19:43:40.459,-0.66016,-0.71997,0.06470;
19:43:40.469,-0.66113,-0.72290,0.03662;
19:43:40.479,-0.66455,-0.72681,0.02051;
19:43:40.489,-0.66699,-0.72559,0.01294;
19:43:40.499,-0.66040,-0.71973,0.02734;
19:43:40.509,-0.65479,-0.71948,0.06689;
19:43:40.519,-0.65869,-0.71875,0.09521;
19:43:40.529,-0.66382,-0.71362,0.10669;
19:43:40.539,-0.67969,-0.71265,0.10132;
19:43:40.549,-0.68457,-0.70923,0.08154;
19:43:40.559,-0.68799,-0.71143,0.07300;
19:43:40.569,-0.69580,-0.71094,0.08008;
19:43:40.579,-0.70093,-0.70557,0.10327;
19:43:40.589,-0.70410,-0.71045,0.13013;
19:43:40.599,-0.70337,-0.71265,0.14111;
19:43:40.609,-0.69995,-0.71167,0.14185;
19:43:40.619,-0.70459,-0.71167,0.13379;
19:43:40.629,-0.70605,-0.70703,0.11475;
19:43:40.639,-0.69775,-0.70605,0.10669;
19:43:40.649,-0.69727,-0.70435,0.12305;
19:43:40.659,-0.70337,-0.70532,0.14551;
19:43:40.669,-0.70654,-0.71265,0.14429;
19:43:40.679,-0.70630,-0.71289,0.11499;
19:43:40.689,-0.69556,-0.70972,0.07593;
19:43:40.699,-0.67407,-0.70801,0.04175;
19:43:40.709,-0.65771,-0.71729,0.05078;
19:43:40.719,-0.66260,-0.71436,0.08179;
19:43:40.729,-0.67456,-0.71484,0.10693;
19:43:40.739,-0.68457,-0.72437,0.10449;
19:43:40.749,-0.69214,-0.71509,0.08301;
19:43:40.759,-0.69434,-0.71118,0.05859;
19:43:40.769,-0.68628,-0.71265,0.05811;
19:43:40.779,-0.67969,-0.71094,0.07886;
19:43:40.789,-0.67749,-0.70825,0.10742;
19:43:40.799,-0.67700,-0.71167,0.12256;
19:43:40.809,-0.67700,-0.70947,0.10986;
19:43:40.819,-0.68677,-0.70776,0.07568;
19:43:40.829,-0.68872,-0.70410,0.03687;
19:43:40.839,-0.68994,-0.69653,0.03369;
19:43:40.849,-0.70020,-0.70190,0.06396;
19:43:40.859,-0.70483,-0.70605,0.10864;
19:43:40.869,-0.70703,-0.70288,0.13306;
19:43:40.879,-0.70947,-0.70264,0.12451;
19:43:40.889,-0.71216,-0.70337,0.05347;
19:43:40.899,-0.69312,-0.69385,0.06274;
19:43:40.909,-0.69043,-0.69751,0.10010;
19:43:40.919,-0.70679,-0.69775,0.13013;
19:43:40.929,-0.72485,-0.70361,0.13672;
19:43:40.939,-0.74341,-0.69751,0.10132;
19:43:40.949,-0.74390,-0.69238,0.05933;
19:43:40.959,-0.73950,-0.68433,0.04297;
19:43:40.969,-0.75464,-0.67822,0.07202;
19:43:40.979,-0.75610,-0.69312,0.12329;
19:43:40.989,-0.76904,-0.68164,0.15552;
19:43:40.999,-0.77686,-0.68506,0.15674;
19:43:41.009,-0.75952,-0.65137,0.12964;
19:43:41.019,-0.73145,-0.64307,0.10571;
19:43:41.029,-0.71387,-0.67920,0.10547;
19:43:41.039,-0.69922,-0.70557,0.10962;
19:43:41.049,-0.67163,-0.71875,0.10254;
19:43:41.059,-0.64478,-0.69995,0.07861;
19:43:41.069,-0.62158,-0.69214,0.06836;
19:43:41.079,-0.62305,-0.69434,0.08936;
19:43:41.089,-0.65308,-0.70068,0.11157;
19:43:41.099,-0.68823,-0.71167,0.11279;
19:43:41.109,-0.70850,-0.71338,0.08862;
19:43:41.119,-0.71045,-0.68188,0.05981;
19:43:41.129,-0.70313,-0.67139,0.05615;
19:43:41.139,-0.71191,-0.70215,0.06982;
19:43:41.149,-0.72314,-0.70532,0.07178;
19:43:41.159,-0.70874,-0.69019,0.06812;
19:43:41.169,-0.67871,-0.70093,0.03931;
19:43:41.179,-0.66699,-0.66284,0.04688;
19:43:41.189,-0.67944,-0.68262,0.13037;
19:43:41.199,-0.71094,-0.69238,0.08789;
19:43:41.209,-0.73145,-0.66382,0.00073;
19:43:41.219,-0.72900,-0.67944,0.07178;
19:43:41.229,-0.73096,-0.66553,0.10938;
19:43:41.239,-0.72681,-0.68896,-0.00854;
19:43:41.249,-0.70630,-0.67969,-0.05493;
19:43:41.259,-0.68213,-0.67480,-0.06299;
19:43:41.269,-0.67578,-0.68335,-0.03809;
19:43:41.279,-0.68286,-0.68213,0.00195;
19:43:41.289,-0.68506,-0.68457,0.02100;
19:43:41.299,-0.69678,-0.69482,0.01196;
19:43:41.309,-0.70020,-0.67285,-0.00903;
19:43:41.319,-0.70166,-0.63159,0.00610;
19:43:41.329,-0.72632,-0.65454,0.07544;
19:43:41.339,-0.74268,-0.67334,0.14722;
19:43:41.349,-0.75171,-0.67334,0.16260;
19:43:41.359,-0.74878,-0.67896,0.12158;
19:43:41.369,-0.74292,-0.63599,0.05884;
19:43:41.379,-0.75610,-0.59863,0.04419;
19:43:41.389,-0.78003,-0.62964,0.09668;
19:43:41.399,-0.80322,-0.65259,0.14746;
19:43:41.409,-0.80884,-0.64136,0.15454;
19:43:41.419,-0.78613,-0.63989,0.12817;
19:43:41.429,-0.75073,-0.61157,0.09668;
19:43:41.439,-0.74951,-0.61182,0.06958;
19:43:41.449,-0.75977,-0.63403,0.03149;
19:43:41.459,-0.74854,-0.64209,0.00708;
19:43:41.469,-0.74854,-0.64063,0.01733;
19:43:41.479,-0.74805,-0.63574,0.06934;
19:43:41.489,-0.71875,-0.63965,0.13843;
19:43:41.499,-0.70532,-0.62866,0.18115;
19:43:41.509,-0.73438,-0.62866,0.21387;
19:43:41.519,-0.76245,-0.64307,0.19873;
19:43:41.529,-0.77954,-0.63599,0.13770;
19:43:41.539,-0.78296,-0.62183,0.06470;
19:43:41.549,-0.81348,-0.60571,0.01050;
19:43:41.559,-0.79614,-0.69629,-0.05298;
19:43:41.569,-0.76782,-0.70117,-0.13281;
19:43:41.579,-0.73486,-0.67456,-0.26733;
19:43:41.589,-0.73389,-0.62720,-0.36548;
19:43:41.599,-0.74341,-0.61987,-0.38184;
19:43:41.609,-0.72266,-0.60547,-0.36792;
19:43:41.619,-0.69800,-0.61157,-0.32910;
19:43:41.629,-0.67651,-0.62866,0.00464;
19:43:41.639,-0.67139,-0.53760,0.18359;
19:43:41.649,-0.65820,-0.60718,0.46143;
19:43:41.659,-0.69385,-0.63721,0.47437;
19:43:41.669,-0.75928,-0.59009,0.35986;
19:43:41.679,-0.73340,-0.58643,0.51074;
19:43:41.689,-0.84766,-0.61230,0.52856;
19:43:41.699,-0.83691,-0.59717,0.33398;
19:43:41.709,-0.85181,-0.59912,0.11743;
19:43:41.719,-0.82422,-0.63062,-0.11255;
19:43:41.729,-0.80884,-0.61255,-0.22974;
19:43:41.739,-0.78442,-0.62695,-0.31689;
19:43:41.749,-0.78003,-0.65381,-0.34448;
19:43:41.759,-0.76196,-0.65137,-0.41821;
19:43:41.769,-0.76025,-0.57373,-0.57056;
19:43:41.779,-0.74756,-0.53906,-0.62476;
19:43:41.789,-0.70020,-0.58545,-0.50708;
19:43:41.799,-0.78906,-0.58521,-0.25635;
19:43:41.809,-0.82275,-0.54883,0.05615;
19:43:41.819,-0.82910,-0.59521,0.33008;
19:43:41.829,-0.80908,-0.62695,0.54077;
19:43:41.839,-0.71777,-0.64063,0.67700;
19:43:41.849,-0.75342,-0.67407,0.78516;
19:43:41.859,-0.69897,-0.62744,0.64819;
19:43:41.869,-0.77100,-0.51831,0.01196;
19:43:41.879,-0.82471,-0.62329,-0.24658;
19:43:41.889,-0.87573,-0.63477,-0.38257;
19:43:41.899,-0.92676,-0.56592,-0.23682;
19:43:41.909,-0.94604,-0.62158,-0.04663;
19:43:41.919,-0.94287,-0.63477,0.11060;
19:43:41.929,-0.93237,-0.63818,0.18335;
19:43:41.939,-0.89917,-0.64429,0.17554;
19:43:41.949,-0.85767,-0.63574,0.09058;
19:43:41.959,-0.82178,-0.63818,-0.04370;
19:43:41.969,-0.81641,-0.62549,-0.16821;
19:43:41.979,-0.81470,-0.60938,-0.18896;
19:43:41.989,-0.82739,-0.60645,-0.06104;
19:43:41.999,-0.84570,-0.63745,0.08716;
19:43:42.009,-0.85059,-0.67969,0.17065;
19:43:42.019,-0.90356,-0.68481,0.14917;
19:43:42.029,-0.92456,-0.64722,0.04614;
19:43:42.039,-0.89063,-0.62427,-0.02173;
19:43:42.049,-0.86377,-0.59375,-0.04224;
19:43:42.059,-0.80005,-0.58325,-0.03198;
19:43:42.069,-0.75781,-0.63867,-0.02075;
19:43:42.079,-0.73242,-0.64331,-0.02173;
19:43:42.089,-0.69507,-0.61230,-0.02173;
19:43:42.099,-0.64941,-0.60938,-0.01025;
19:43:42.109,-0.55469,-0.62964,0.05078;
19:43:42.119,-0.56372,-0.66943,0.12598;
19:43:42.129,-0.64185,-0.67017,0.11816;
19:43:42.139,-0.68799,-0.63794,0.02441;
19:43:42.149,-0.75952,-0.60449,-0.12305;
19:43:42.159,-0.81079,-0.55371,-0.28662;
19:43:42.169,-0.83618,-0.51953,-0.36450;
19:43:42.179,-0.81982,-0.53369,-0.31445;
19:43:42.189,-0.80444,-0.58521,-0.19531;
19:43:42.199,-0.84619,-0.58862,-0.10352;
19:43:42.209,-0.89966,-0.54956,-0.08862;
19:43:42.219,-0.93701,-0.47388,-0.18604;
19:43:42.229,-0.82275,-0.52905,-0.19702;
19:43:42.239,-0.81348,-0.52271,-0.19604;
19:43:42.249,-0.93457,-0.47095,-0.17114;
19:43:42.259,-1.04419,-0.41992,-0.14893;
19:43:42.269,-1.05322,-0.39868,-0.10278;
19:43:42.279,-0.95117,-0.43408,0.01221;
19:43:42.289,-0.85400,-0.47363,0.16064;
19:43:42.299,-0.85059,-0.51343,0.24805;
19:43:42.309,-0.86841,-0.48315,0.21631;
19:43:42.319,-0.84961,-0.40942,0.08374;
19:43:42.329,-0.82837,-0.39233,-0.07446;
19:43:42.339,-0.76807,-0.38867,-0.16504;
19:43:42.349,-0.67212,-0.43433,-0.15649;
19:43:42.359,-0.61523,-0.50122,-0.07104;
19:43:42.369,-0.59937,-0.51733,0.04126;
19:43:42.379,-0.65967,-0.53369,0.12402;
19:43:42.389,-0.78711,-0.55322,0.11792;
19:43:42.399,-0.88574,-0.51782,0.04321;
19:43:42.409,-0.90601,-0.44995,-0.05103;
19:43:42.419,-0.89282,-0.45996,-0.10034;
19:43:42.429,-0.87817,-0.49292,-0.10059;
19:43:42.439,-0.86279,-0.52539,-0.09155;
19:43:42.449,-0.80078,-0.58447,-0.06177;
19:43:42.459,-0.73853,-0.56641,-0.00488;
19:43:42.469,-0.73438,-0.56836,0.02808;
19:43:42.479,-0.78296,-0.57446,-0.00879;
19:43:42.489,-0.77881,-0.51709,-0.07935;
19:43:42.499,-0.74121,-0.55640,-0.08936;
19:43:42.509,-0.75269,-0.57397,-0.04053;
19:43:42.519,-0.73462,-0.54663,0.01440;
19:43:42.529,-0.76855,-0.57178,0.10181;
19:43:42.539,-0.81226,-0.59424,0.18604;
19:43:42.549,-0.83984,-0.64087,0.16968;
19:43:42.559,-0.97827,-0.58105,-0.12207;
19:43:42.569,-0.99756,-0.51050,-0.12524;
19:43:42.579,-0.82471,-0.60889,0.09839;
19:43:42.589,-0.54785,-0.73755,0.02197;
19:43:42.599,-0.04785,-0.74609,-0.03149;
19:43:42.609,-0.65405,-0.50757,0.01758;
19:43:42.619,-0.83301,-0.59277,0.11670;
19:43:42.629,-1.08618,-0.39941,0.01904;
19:43:42.639,-1.06982,-0.46313,-0.13550;
19:43:42.649,-1.31860,-0.48022,0.04980;
19:43:42.659,-1.29248,-0.53589,0.03418;
19:43:42.669,-1.28662,-0.44873,0.01074;
19:43:42.679,-1.26416,-0.33276,-0.08936;
19:43:42.689,-1.21069,-0.37305,-0.05029;
19:43:42.699,-1.18115,-0.38086,-0.11621;
19:43:42.709,-1.07202,-0.36255,-0.13354;
19:43:42.719,-0.93213,-0.34082,-0.17383;
19:43:42.729,-0.73657,-0.43896,-0.22070;
19:43:42.739,-0.60791,-0.50317,-0.32324;
19:43:42.749,-0.55933,-0.49561,-0.39185;
19:43:42.759,-0.64331,-0.46851,-0.36719;
19:43:42.769,-0.73706,-0.49292,-0.31226;
19:43:42.779,-0.81616,-0.47827,-0.24951;
19:43:42.789,-0.91064,-0.46240,-0.16406;
19:43:42.799,-0.99194,-0.47290,-0.14795;
19:43:42.809,-1.04590,-0.54468,-0.21802;
19:43:42.819,-1.02612,-0.52246,-0.14404;
19:43:42.829,-0.95337,-0.61816,-0.06738;
19:43:42.839,-0.70508,-0.82642,0.02344;
19:43:42.849,-0.47925,-0.93359,0.16357;
19:43:42.859,-0.42017,-0.83179,0.27051;
19:43:42.869,-0.41797,-0.71533,0.36768;
19:43:42.879,-0.55908,-0.82178,0.60962;
19:43:42.889,-0.60352,-1.17358,-0.35742;
19:43:42.899,-0.75415,-0.41113,-0.72510;
19:43:42.909,-0.82227,-0.32837,-0.78027;
19:43:42.919,-0.78198,-0.65942,-0.62500;
19:43:42.929,-0.89063,-0.85083,-0.40723;
19:43:42.939,-0.85840,-0.95532,-0.15552;
19:43:42.949,-0.87207,-1.01294,-0.01172;
19:43:42.959,-0.86060,-0.91333,0.00757;
19:43:42.969,-0.79297,-0.69482,-0.05176;
19:43:42.979,-0.68652,-0.39526,-0.10352;
19:43:42.989,-0.56421,-0.17383,-0.10156;
19:43:42.999,-0.49487,0.00220,-0.02686;
19:43:43.009,-0.33423,0.36328,0.18799;
19:43:43.019,-0.22021,0.48364,0.20850;
19:43:43.029,-0.13281,0.55273,0.01294;
19:43:43.039,0.11401,0.07715,-0.47559;
19:43:43.049,-0.47925,-0.26489,0.19922;
19:43:43.059,-1.61597,-1.79517,0.04370;
19:43:43.069,-1.84277,0.07666,0.14526;
19:43:43.079,-1.65137,0.32813,-0.21362;
19:43:43.089,-1.58813,-0.64746,0.00635;
19:43:43.099,-1.60254,-0.87964,-0.08643;
19:43:43.109,-1.31934,-0.66626,0.11279;
19:43:43.119,-1.16919,-0.60352,0.08789;
19:43:43.129,-0.98340,-0.65234,0.18872;
19:43:43.139,-0.87256,-0.69580,0.14160;
19:43:43.149,-0.70605,-0.70093,0.11963;
19:43:43.159,-0.57813,-0.64282,0.03516;
19:43:43.169,-0.45508,-0.61206,-0.00073;
19:43:43.179,-0.37134,-0.65039,-0.03979;
19:43:43.189,-0.32813,-0.69458,-0.03882;
19:43:43.199,-0.35938,-0.69971,-0.03833;
19:43:43.209,-0.41577,-0.70142,-0.04907;
19:43:43.219,-0.53076,-0.66870,-0.09229;
19:43:43.229,-0.66602,-0.61792,-0.12646;
19:43:43.239,-0.75073,-0.60034,-0.13940;
19:43:43.249,-0.79688,-0.64355,-0.09277;
19:43:43.259,-0.86865,-0.69409,-0.02783;
19:43:43.269,-0.99634,-0.68335,0.00977;
19:43:43.279,-1.02930,-0.69775,-0.01440;
19:43:43.289,-0.97241,-0.72998,-0.04224;
19:43:43.299,-0.85132,-0.73120,-0.05249;
19:43:43.309,-0.72900,-0.72852,-0.04175;
19:43:43.319,-0.62695,-0.74438,-0.02686;
19:43:43.329,-0.55835,-0.74097,-0.01318;
19:43:43.339,-0.50903,-0.73999,-0.01245;
19:43:43.349,-0.47681,-0.74561,-0.02539;
19:43:43.359,-0.46167,-0.75830,-0.04590;
19:43:43.369,-0.47046,-0.75562,-0.07397;
19:43:43.379,-0.51855,-0.73682,-0.09570;
19:43:43.389,-0.58984,-0.73364,-0.10229;
19:43:43.399,-0.65918,-0.74023,-0.08716;
19:43:43.409,-0.72144,-0.72778,-0.04883;
19:43:43.419,-0.76782,-0.72510,0.00977;
19:43:43.429,-0.78296,-0.73242,0.07617;
19:43:43.439,-0.75171,-0.73389,0.12207;
19:43:43.449,-0.71997,-0.72925,0.05347;
19:43:43.459,-0.68872,-0.72705,-0.00586;
19:43:43.469,-0.65039,-0.73193,-0.03711;
19:43:43.479,-0.61987,-0.73511,-0.04248;
19:43:43.489,-0.60181,-0.73657,-0.02441;
19:43:43.499,-0.60059,-0.73877,-0.00269;
19:43:43.509,-0.62231,-0.72412,0.02124;
19:43:43.519,-0.63184,-0.70459,0.05640;
19:43:43.529,-0.64868,-0.70923,0.09180;
19:43:43.539,-0.67310,-0.71558,0.08911;
19:43:43.549,-0.69067,-0.71533,0.04736;
19:43:43.559,-0.70215,-0.71362,0.00537;
19:43:43.569,-0.70508,-0.70776,-0.02026;
19:43:43.579,-0.70410,-0.70020,-0.02319;
19:43:43.589,-0.71753,-0.71362,-0.00439;
19:43:43.599,-0.73071,-0.72778,0.01318;
19:43:43.609,-0.72729,-0.71484,0.03223;
19:43:43.619,-0.71167,-0.71729,0.04395;
19:43:43.629,-0.69116,-0.72583,0.04370;
19:43:43.639,-0.68994,-0.72046,0.02905;
19:43:43.649,-0.69702,-0.71484,-0.00562;
19:43:43.659,-0.70166,-0.72021,-0.04126;
19:43:43.669,-0.69604,-0.71826,-0.06812;
19:43:43.679,-0.67798,-0.72266,-0.07568;
19:43:43.689,-0.65283,-0.73340,-0.06909;
19:43:43.699,-0.63867,-0.73438,-0.06226;
19:43:43.709,-0.64746,-0.71899,-0.05591;
19:43:43.719,-0.64258,-0.71436,-0.01758;
19:43:43.729,-0.64600,-0.72290,0.04688;
19:43:43.739,-0.68579,-0.72876,0.09448;
19:43:43.749,-0.71069,-0.72852,0.09595;
19:43:43.759,-0.72095,-0.72852,0.05273;
19:43:43.769,-0.72046,-0.72607,-0.00952;
19:43:43.779,-0.70801,-0.72021,-0.06665;
19:43:43.789,-0.69824,-0.72485,-0.09839;
19:43:43.799,-0.67603,-0.72388,-0.09424;
19:43:43.809,-0.64478,-0.72559,-0.01563;
19:43:43.819,-0.64502,-0.72632,0.01709;
19:43:43.829,-0.65308,-0.71753,0.03198;
19:43:43.839,-0.65820,-0.70459,0.04883;
19:43:43.849,-0.67700,-0.69995,0.07202;
19:43:43.859,-0.73047,-0.69653,-0.01196;
19:43:43.869,-0.73413,-0.69604,-0.01904;
19:43:43.879,-0.73120,-0.70703,-0.01733;
19:43:43.889,-0.71899,-0.68848,-0.00464;
19:43:43.899,-0.69751,-0.70801,-0.00073;
19:43:43.909,-0.67139,-0.71582,0.00024;
19:43:43.919,-0.65161,-0.70581,0.01270;
19:43:43.929,-0.65430,-0.71045,0.02515;
19:43:43.939,-0.67358,-0.70801,0.02515;
19:43:43.949,-0.69092,-0.70728,0.01147;
19:43:43.959,-0.70337,-0.71094,-0.00635;
19:43:43.969,-0.70923,-0.71362,-0.00562;
19:43:43.979,-0.70728,-0.71216,0.02759;
19:43:43.989,-0.70190,-0.71045,0.03784;
19:43:43.999,-0.69873,-0.69385,0.02637;
19:43:44.009,-0.68701,-0.70337,0.04272;
19:43:44.019,-0.66284,-0.71777,0.03296;
19:43:44.029,-0.67358,-0.70288,0.00439;
19:43:44.039,-0.68140,-0.71411,0.00562;
19:43:44.049,-0.69531,-0.71265,0.02417;
19:43:44.059,-0.68384,-0.71167,0.03003;
19:43:44.069,-0.67969,-0.71753,0.02612;
19:43:44.079,-0.68115,-0.70972,0.02393;
19:43:44.089,-0.68555,-0.70435,0.01709;
19:43:44.099,-0.68335,-0.69775,0.01440;
19:43:44.109,-0.68921,-0.69849,0.01636;
19:43:44.119,-0.69312,-0.69995,0.01758;
19:43:44.129,-0.69238,-0.70215,0.01807;
19:43:44.139,-0.69043,-0.70166,0.02368;
19:43:44.149,-0.69336,-0.69458,0.03857;
19:43:44.159,-0.70215,-0.69824,0.04810;
19:43:44.169,-0.70996,-0.70093,0.04590;
19:43:44.179,-0.71851,-0.70483,0.03271;
19:43:44.189,-0.72095,-0.70630,0.02295;
19:43:44.199,-0.71753,-0.69922,0.01782;
19:43:44.209,-0.70752,-0.70264,0.01904;
19:43:44.219,-0.69141,-0.71094,0.02393;
19:43:44.229,-0.67017,-0.71729,0.02075;
19:43:44.239,-0.65796,-0.71777,0.02075;
19:43:44.249,-0.66260,-0.70825,0.02197;
19:43:44.259,-0.68433,-0.69824,0.01880;
19:43:44.269,-0.70142,-0.69629,0.00854;
19:43:44.279,-0.70972,-0.70044,-0.00366;
19:43:44.289,-0.71826,-0.69312,-0.01099;
19:43:44.299,-0.71875,-0.68604,-0.00415;
19:43:44.309,-0.72241,-0.69043,0.01123;
19:43:44.319,-0.71680,-0.68896,0.02295;
19:43:44.329,-0.71191,-0.69775,0.03687;
19:43:44.339,-0.71118,-0.70337,0.04150;
19:43:44.349,-0.70801,-0.69629,0.03491;
19:43:44.359,-0.70801,-0.69556,0.02515;
19:43:44.369,-0.71118,-0.68921,0.01953;
19:43:44.379,-0.71265,-0.68286,0.01636;
19:43:44.389,-0.70679,-0.68457,0.01489;
19:43:44.399,-0.69458,-0.68921,0.02026;
19:43:44.409,-0.68433,-0.68433,0.02515;
19:43:44.419,-0.68457,-0.67822,0.03296;
19:43:44.429,-0.69263,-0.68970,0.04541;
19:43:44.439,-0.69653,-0.69995,0.05225;
19:43:44.449,-0.71265,-0.69263,0.05542;
19:43:44.459,-0.73584,-0.66187,0.03711;
19:43:44.469,-0.74341,-0.66016,0.03125;
19:43:44.479,-0.73242,-0.70337,0.03687;
19:43:44.489,-0.72437,-0.70288,0.03174;
19:43:44.499,-0.71997,-0.68237,0.02441;
19:43:44.509,-0.71045,-0.68604,0.01050;
19:43:44.519,-0.69873,-0.68701,0.00269;
19:43:44.529,-0.69751,-0.68701,0.00757;
19:43:44.539,-0.70459,-0.67700,0.02954;
19:43:44.549,-0.71631,-0.68677,0.04932;
19:43:44.559,-0.72461,-0.68945,0.05249;
19:43:44.569,-0.71851,-0.68359,0.02637;
19:43:44.579,-0.72046,-0.68774,-0.01074;
19:43:44.589,-0.72241,-0.67725,-0.04468;
19:43:44.599,-0.74316,-0.66602,-0.07788;
19:43:44.609,-0.75879,-0.66016,-0.06689;
19:43:44.619,-0.75830,-0.65918,-0.00586;
19:43:44.629,-0.76685,-0.65991,0.06909;
19:43:44.639,-0.78540,-0.65771,0.08691;
19:43:44.649,-0.80542,-0.65479,0.06201;
19:43:44.659,-0.78882,-0.67847,0.03882;
19:43:44.669,-0.76294,-0.68750,0.01221;
19:43:44.679,-0.75366,-0.64355,0.01025;
19:43:44.689,-0.72827,-0.63525,0.02075;
19:43:44.699,-0.68286,-0.64551,0.03760;
19:43:44.709,-0.60669,-0.65527,0.06177;
19:43:44.719,-0.55078,-0.66333,0.07373;
19:43:44.729,-0.60791,-0.64429,0.06982;
19:43:44.739,-0.73145,-0.64844,0.05518;
19:43:44.749,-0.83154,-0.64551,0.04126;
19:43:44.759,-0.86450,-0.62695,0.03003;
19:43:44.769,-0.83276,-0.63672,0.03394;
19:43:44.779,-0.80835,-0.64502,0.04810;
19:43:44.789,-0.79565,-0.63745,0.05859;
19:43:44.799,-0.79858,-0.63623,0.05713;
19:43:44.809,-0.80640,-0.64575,0.04761;
19:43:44.819,-0.78027,-0.63892,-0.00244;
19:43:44.829,-0.76758,-0.63818,0.01221;
19:43:44.839,-0.76758,-0.63037,0.02466;
19:43:44.849,-0.77930,-0.62134,0.02979;
19:43:44.859,-0.79810,-0.60938,0.02637;
19:43:44.869,-0.82349,-0.61133,0.01050;
19:43:44.879,-0.82324,-0.62183,-0.00171;
19:43:44.889,-0.81177,-0.61841,0.01221;
19:43:44.899,-0.80713,-0.62402,0.04712;
19:43:44.909,-0.78760,-0.63916,0.07202;
19:43:44.919,-0.78589,-0.64038,0.06616;
19:43:44.929,-0.79248,-0.63818,0.03564;
19:43:44.939,-0.77344,-0.63599,0.01611;
19:43:44.949,-0.74219,-0.62695,0.01392;
19:43:44.959,-0.74634,-0.63428,0.00562;
19:43:44.969,-0.74756,-0.63379,-0.00781;
19:43:44.979,-0.75171,-0.62354,-0.01025;
19:43:44.989,-0.75220,-0.61646,0.00732;
19:43:44.999,-0.75171,-0.62036,0.04150;
19:43:45.009,-0.74902,-0.62280,0.06274;
19:43:45.019,-0.73633,-0.62354,0.05566;
19:43:45.029,-0.72168,-0.62500,0.03076;
19:43:45.039,-0.71826,-0.61938,0.00635;
19:43:45.049,-0.71289,-0.62427,-0.00830;
19:43:45.059,-0.70190,-0.62402,-0.01245;
19:43:45.069,-0.68579,-0.62891,-0.00928;
19:43:45.079,-0.65308,-0.64722,0.00659;
19:43:45.089,-0.62427,-0.66724,0.01465;
19:43:45.099,-0.61646,-0.67651,-0.00146;
19:43:45.109,-0.63721,-0.65527,-0.03979;
19:43:45.119,-0.67358,-0.62817,-0.07178;
19:43:45.129,-0.70459,-0.62671,-0.07690;
19:43:45.139,-0.72925,-0.62720,-0.07764;
19:43:45.149,-0.77734,-0.62866,-0.07471;
19:43:45.159,-0.83496,-0.62598,-0.05640;
19:43:45.169,-0.87915,-0.61182,-0.03076;
19:43:45.179,-0.88623,-0.61572,0.04102;
19:43:45.189,-0.86743,-0.62305,0.07104;
19:43:45.199,-0.83667,-0.62207,0.07764;
19:43:45.209,-0.80078,-0.61816,0.05933;
19:43:45.219,-0.75562,-0.62549,0.02539;
19:43:45.229,-0.72290,-0.63330,-0.01440;
19:43:45.239,-0.71362,-0.63330,-0.05469;
19:43:45.249,-0.72388,-0.62915,-0.07715;
19:43:45.259,-0.74146,-0.62085,-0.07495;
19:43:45.269,-0.75171,-0.62646,-0.05151;
19:43:45.279,-0.75659,-0.64111,-0.02222;
19:43:45.289,-0.75342,-0.63696,0.00269;
19:43:45.299,-0.73096,-0.63257,0.05493;
19:43:45.309,-0.75977,-0.62451,0.01514;
19:43:45.319,-0.75464,-0.63159,-0.05420;
19:43:45.329,-0.75513,-0.62256,-0.05981;
19:43:45.339,-0.74194,-0.62231,-0.00537;
19:43:45.349,-0.74878,-0.64014,0.03760;
19:43:45.359,-0.76465,-0.63452,0.01514;
19:43:45.369,-0.78760,-0.62769,-0.01514;
19:43:45.379,-0.82227,-0.62158,0.01733;
19:43:45.389,-0.82275,-0.62915,0.03223;
19:43:45.399,-0.82764,-0.63086,0.03052;
19:43:45.409,-0.83374,-0.63428,0.01709;
19:43:45.419,-0.83691,-0.62646,-0.00488;
19:43:45.429,-0.84814,-0.61938,-0.00781;
19:43:45.439,-0.85303,-0.62134,0.00244;
19:43:45.449,-0.85791,-0.61768,0.01099;
19:43:45.459,-0.84082,-0.62280,0.02051;
19:43:45.469,-0.80371,-0.62671,0.02515;
19:43:45.479,-0.76904,-0.63599,0.01611;
19:43:45.489,-0.75171,-0.64453,0.00171;
19:43:45.499,-0.74780,-0.64087,-0.01538;
19:43:45.509,-0.74512,-0.63916,-0.02954;
19:43:45.519,-0.75488,-0.62451,-0.02686;
19:43:45.529,-0.77173,-0.61987,-0.00610;
19:43:45.539,-0.79761,-0.63086,0.02881;
19:43:45.549,-0.80981,-0.63745,0.05322;
19:43:45.559,-0.80762,-0.63501,0.06152;
19:43:45.569,-0.81470,-0.62720,0.04785;
19:43:45.579,-0.83862,-0.61963,0.03662;
19:43:45.589,-0.87524,-0.62451,0.03979;
19:43:45.599,-0.88965,-0.62720,0.03906;
19:43:45.609,-0.88721,-0.62354,0.03662;
19:43:45.619,-0.87354,-0.62646,0.03418;
19:43:45.629,-0.83423,-0.63574,0.02417;
19:43:45.639,-0.78687,-0.64331,0.01050;
19:43:45.649,-0.75073,-0.64038,-0.00757;
19:43:45.659,-0.71045,-0.64014,-0.02954;
19:43:45.669,-0.68750,-0.63477,-0.04272;
19:43:45.679,-0.68457,-0.62134,-0.03296;
19:43:45.689,-0.66357,-0.59082,-0.01294;
19:43:45.699,-0.62280,-0.61743,-0.01392;
19:43:45.709,-0.57349,-0.68115,-0.01880;
19:43:45.719,-0.53491,-0.71094,-0.02075;
19:43:45.729,-0.51392,-0.71777,-0.02441;
19:43:45.739,-0.48315,-0.71899,-0.03857;
19:43:45.749,-0.46802,-0.69336,-0.05151;
19:43:45.759,-0.52100,-0.65332,-0.04907;
19:43:45.769,-0.63672,-0.61621,-0.02417;
19:43:45.779,-0.81567,-0.57275,0.03442;
19:43:45.789,-0.96899,-0.62427,0.12305;
19:43:45.799,-1.02661,-0.61694,0.14526;
19:43:45.809,-0.98657,-0.64307,0.10303;
