time,acc_x,acc_y,acc_z
18:55:50.361,-0.57837,0.51050,-0.63232;
18:55:50.371,-0.57373,0.51245,-0.63037;
18:55:50.381,-0.57031,0.52026,-0.63306;
18:55:50.391,-0.57129,0.52417,-0.63330;
18:55:50.401,-0.57129,0.52002,-0.63940;
18:55:50.411,-0.56567,0.51563,-0.65234;
18:55:50.421,-0.56201,0.52344,-0.65503;
18:55:50.431,-0.56177,0.52930,-0.65015;
18:55:50.441,-0.56470,0.52100,-0.63989;
18:55:50.451,-0.56860,0.51172,-0.62988;
18:55:50.461,-0.57446,0.50903,-0.63403;
18:55:50.471,-0.58008,0.51172,-0.63330;
18:55:50.481,-0.58130,0.51465,-0.63281;
18:55:50.491,-0.58032,0.51465,-0.61914;
18:55:50.501,-0.58594,0.50928,-0.60718;
18:55:50.511,-0.59131,0.50903,-0.61255;
18:55:50.521,-0.59106,0.51270,-0.62427;
18:55:50.531,-0.58960,0.51099,-0.64258;
18:55:50.541,-0.58032,0.52124,-0.65674;
18:55:50.551,-0.56616,0.52539,-0.65991;
18:55:50.561,-0.55591,0.51880,-0.65283;
18:55:50.571,-0.55591,0.51270,-0.64185;
18:55:50.581,-0.56104,0.51392,-0.63379;
18:55:50.591,-0.56934,0.52393,-0.62183;
18:55:50.601,-0.58179,0.51978,-0.60718;
18:55:50.611,-0.59912,0.51123,-0.60205;
18:55:50.621,-0.60449,0.50952,-0.60059;
18:55:50.631,-0.60010,0.50806,-0.60352;
18:55:50.641,-0.60352,0.51587,-0.61084;
18:55:50.651,-0.59399,0.53247,-0.62646;
18:55:50.661,-0.58008,0.54126,-0.64722;
18:55:50.671,-0.56909,0.53540,-0.65430;
18:55:50.681,-0.54858,0.51758,-0.63208;
18:55:50.691,-0.56177,0.51587,-0.63794;
18:55:50.701,-0.57471,0.51392,-0.64502;
18:55:50.711,-0.57007,0.53491,-0.62622;
18:55:50.721,-0.58325,0.52661,-0.62012;
18:55:50.731,-0.58862,0.50269,-0.64258;
18:55:50.741,-0.58203,0.50293,-0.65063;
18:55:50.751,-0.57568,0.51221,-0.65088;
18:55:50.761,-0.56494,0.52124,-0.65259;
18:55:50.771,-0.55981,0.52148,-0.64014;
18:55:50.781,-0.56372,0.51587,-0.63452;
18:55:50.791,-0.56909,0.51782,-0.63257;
18:55:50.801,-0.57495,0.51709,-0.63281;
18:55:50.811,-0.57739,0.51782,-0.63794;
18:55:50.821,-0.57642,0.51782,-0.63623;
18:55:50.831,-0.57690,0.52075,-0.62476;
18:55:50.841,-0.58032,0.52686,-0.61353;
18:55:50.851,-0.58911,0.52710,-0.60693;
18:55:50.861,-0.59302,0.51514,-0.61011;
18:55:50.871,-0.59302,0.51147,-0.62354;
18:55:50.881,-0.58521,0.52051,-0.62646;
18:55:50.891,-0.57227,0.53101,-0.62280;
18:55:50.901,-0.56714,0.53564,-0.62476;
18:55:50.911,-0.56763,0.53491,-0.62598;
18:55:50.921,-0.57471,0.52295,-0.62793;
18:55:50.931,-0.58179,0.50659,-0.63965;
18:55:50.941,-0.58228,0.50488,-0.65137;
18:55:50.951,-0.57813,0.50708,-0.64893;
18:55:50.961,-0.57373,0.51953,-0.64355;
18:55:50.971,-0.57104,0.52905,-0.63916;
18:55:50.981,-0.57275,0.51685,-0.63550;
18:55:50.991,-0.57275,0.50537,-0.63037;
18:55:51.001,-0.57593,0.50684,-0.61353;
18:55:51.011,-0.58911,0.51245,-0.60034;
18:55:51.021,-0.60010,0.51196,-0.59839;
18:55:51.031,-0.60547,0.51563,-0.60132;
18:55:51.041,-0.59619,0.52075,-0.60205;
18:55:51.051,-0.58643,0.52490,-0.60596;
18:55:51.061,-0.59277,0.52197,-0.61670;
18:55:51.071,-0.59277,0.50488,-0.61523;
18:55:51.081,-0.59351,0.48877,-0.60815;
18:55:51.091,-0.60327,0.48633,-0.62354;
18:55:51.101,-0.59473,0.49365,-0.65454;
18:55:51.111,-0.57300,0.49561,-0.66309;
18:55:51.121,-0.55957,0.50830,-0.65283;
18:55:51.131,-0.55298,0.51685,-0.64551;
18:55:51.141,-0.55615,0.52588,-0.64551;
18:55:51.151,-0.55664,0.53320,-0.65015;
18:55:51.161,-0.55518,0.52856,-0.64941;
18:55:51.171,-0.55762,0.52271,-0.65967;
18:55:51.181,-0.55859,0.51563,-0.67041;
18:55:51.191,-0.56104,0.50659,-0.66333;
18:55:51.201,-0.55933,0.49390,-0.65991;
18:55:51.211,-0.55518,0.49072,-0.66089;
18:55:51.221,-0.55371,0.49585,-0.67407;
18:55:51.231,-0.54810,0.50220,-0.68311;
18:55:51.241,-0.53467,0.51025,-0.68066;
18:55:51.251,-0.52563,0.53467,-0.68701;
18:55:51.261,-0.53369,0.54077,-0.69189;
18:55:51.271,-0.53955,0.51978,-0.68896;
18:55:51.281,-0.53979,0.49561,-0.68970;
18:55:51.291,-0.55298,0.48682,-0.69458;
18:55:51.301,-0.56079,0.49268,-0.68945;
18:55:51.311,-0.56299,0.49780,-0.67798;
18:55:51.321,-0.56079,0.50439,-0.66260;
18:55:51.331,-0.56152,0.50366,-0.64404;
18:55:51.341,-0.56494,0.49854,-0.63623;
18:55:51.351,-0.56909,0.49829,-0.63379;
18:55:51.361,-0.57520,0.50854,-0.63330;
18:55:51.371,-0.57422,0.52368,-0.63452;
18:55:51.381,-0.57886,0.52295,-0.63062;
18:55:51.391,-0.58325,0.50366,-0.63354;
18:55:51.401,-0.58374,0.49878,-0.64209;
18:55:51.411,-0.57886,0.50049,-0.64233;
18:55:51.421,-0.57373,0.49829,-0.63232;
18:55:51.431,-0.57495,0.50562,-0.63306;
18:55:51.441,-0.57202,0.51001,-0.64331;
18:55:51.451,-0.57666,0.49609,-0.63989;
18:55:51.461,-0.55298,0.49243,-0.60254;
18:55:51.471,-0.55054,0.47070,-0.60986;
18:55:51.481,-0.60083,0.46826,-0.60156;
18:55:51.491,-0.56055,0.57568,-0.47632;
18:55:51.501,-0.64746,0.62207,-0.55566;
18:55:51.511,-0.55493,0.41870,-0.54761;
18:55:51.521,-0.53711,0.50513,-0.70703;
18:55:51.531,-0.60913,0.67651,-0.80029;
18:55:51.541,-0.53369,0.35718,-0.67383;
18:55:51.551,-0.56201,0.45703,-0.74219;
18:55:51.561,-0.55249,0.47168,-0.74194;
18:55:51.571,-0.51782,0.50000,-0.74707;
18:55:51.581,-0.50830,0.58398,-0.84106;
18:55:51.591,-0.44434,0.47241,-0.83521;
18:55:51.601,-0.45386,0.50171,-0.77930;
18:55:51.611,-0.49683,0.53711,-0.72534;
18:55:51.621,-0.55566,0.47192,-0.66357;
18:55:51.631,-0.56592,0.44214,-0.65698;
18:55:51.641,-0.57813,0.44287,-0.65649;
18:55:51.651,-0.59741,0.46851,-0.64258;
18:55:51.661,-0.61206,0.48853,-0.64014;
18:55:51.671,-0.60913,0.51782,-0.62964;
18:55:51.681,-0.59204,0.53687,-0.60083;
18:55:51.691,-0.57593,0.52661,-0.58325;
18:55:51.701,-0.55566,0.51978,-0.59546;
18:55:51.711,-0.54199,0.52271,-0.64453;
18:55:51.721,-0.54053,0.51636,-0.68457;
18:55:51.731,-0.54492,0.50098,-0.71338;
18:55:51.741,-0.55273,0.49390,-0.72339;
18:55:51.751,-0.54126,0.47656,-0.70483;
18:55:51.761,-0.54736,0.47607,-0.66821;
18:55:51.771,-0.55078,0.52905,-0.62549;
18:55:51.781,-0.54199,0.57007,-0.58569;
18:55:51.791,-0.56226,0.55933,-0.56836;
18:55:51.801,-0.58447,0.53198,-0.58228;
18:55:51.811,-0.58960,0.51685,-0.60498;
18:55:51.821,-0.57690,0.50928,-0.62061;
18:55:51.831,-0.57739,0.48633,-0.62573;
18:55:51.841,-0.58398,0.46069,-0.62231;
18:55:51.851,-0.57568,0.45654,-0.64453;
18:55:51.861,-0.56274,0.49097,-0.69702;
18:55:51.871,-0.54736,0.55737,-0.72632;
18:55:51.881,-0.53027,0.58643,-0.71899;
18:55:51.891,-0.51123,0.58276,-0.69360;
18:55:51.901,-0.50342,0.54004,-0.67407;
18:55:51.911,-0.50806,0.50659,-0.66992;
18:55:51.921,-0.52393,0.51465,-0.66431;
18:55:51.931,-0.54614,0.52612,-0.67114;
18:55:51.941,-0.56616,0.53369,-0.69873;
18:55:51.951,-0.56543,0.51416,-0.69287;
18:55:51.961,-0.55298,0.49902,-0.65967;
18:55:51.971,-0.57153,0.51416,-0.62280;
18:55:51.981,-0.58521,0.54150,-0.59009;
18:55:51.991,-0.57935,0.56616,-0.57471;
18:55:52.001,-0.58350,0.57910,-0.58521;
18:55:52.011,-0.57935,0.56714,-0.62280;
18:55:52.021,-0.56104,0.54248,-0.64478;
18:55:52.031,-0.54614,0.53516,-0.64258;
18:55:52.041,-0.55029,0.54224,-0.63989;
18:55:52.051,-0.56152,0.55713,-0.61548;
18:55:52.061,-0.55566,0.58496,-0.58496;
18:55:52.071,-0.54688,0.58569,-0.55713;
18:55:52.081,-0.56982,0.57861,-0.57080;
18:55:52.091,-0.57861,0.57471,-0.59546;
18:55:52.101,-0.56396,0.57813,-0.61328;
18:55:52.111,-0.56494,0.54761,-0.61865;
18:55:52.121,-0.57251,0.52026,-0.61133;
18:55:52.131,-0.56567,0.52686,-0.58228;
18:55:52.141,-0.57617,0.55054,-0.59351;
18:55:52.151,-0.59570,0.56982,-0.61475;
18:55:52.161,-0.58154,0.55542,-0.60107;
18:55:52.171,-0.56274,0.54248,-0.59546;
18:55:52.181,-0.56885,0.55884,-0.58862;
18:55:52.191,-0.57031,0.57813,-0.56445;
18:55:52.201,-0.56226,0.58472,-0.53931;
18:55:52.211,-0.57471,0.58008,-0.53784;
18:55:52.221,-0.58374,0.58398,-0.56860;
18:55:52.231,-0.57593,0.58887,-0.60205;
18:55:52.241,-0.57617,0.55249,-0.61230;
18:55:52.251,-0.59131,0.53809,-0.62231;
18:55:52.261,-0.57910,0.57715,-0.61743;
18:55:52.271,-0.56787,0.57690,-0.59302;
18:55:52.281,-0.57471,0.54468,-0.58960;
18:55:52.291,-0.57959,0.54248,-0.61987;
18:55:52.301,-0.57129,0.56104,-0.63428;
18:55:52.311,-0.56885,0.59277,-0.64111;
18:55:52.321,-0.59131,0.60718,-0.65332;
18:55:52.331,-0.60620,0.54126,-0.65967;
18:55:52.341,-0.61548,0.48413,-0.66138;
18:55:52.351,-0.62109,0.49878,-0.65918;
18:55:52.361,-0.63843,0.52808,-0.65820;
18:55:52.371,-0.66064,0.55493,-0.64233;
18:55:52.381,-0.66943,0.59595,-0.62622;
18:55:52.391,-0.63965,0.62207,-0.60229;
18:55:52.401,-0.61182,0.62134,-0.56567;
18:55:52.411,-0.61694,0.59180,-0.55615;
18:55:52.421,-0.59448,0.53369,-0.58740;
18:55:52.431,-0.60962,0.52637,-0.65723;
18:55:52.441,-0.59033,0.52344,-0.67505;
18:55:52.451,-0.49707,0.43750,-0.64233;
18:55:52.461,-0.50342,0.48242,-0.63354;
18:55:52.471,-0.50439,0.49072,-0.62500;
18:55:52.481,-0.50293,0.56641,-0.64209;
18:55:52.491,-0.50903,0.61719,-0.67310;
18:55:52.501,-0.51025,0.59326,-0.68311;
18:55:52.511,-0.51001,0.52637,-0.68677;
18:55:52.521,-0.51587,0.49194,-0.71118;
18:55:52.531,-0.54053,0.49707,-0.72021;
18:55:52.541,-0.55933,0.50977,-0.71118;
18:55:52.551,-0.50952,0.52979,-0.69580;
18:55:52.561,-0.50977,0.55151,-0.68115;
18:55:52.571,-0.53589,0.57251,-0.64453;
18:55:52.581,-0.52051,0.55151,-0.62842;
18:55:52.591,-0.55908,0.54810,-0.62817;
18:55:52.601,-0.58057,0.53979,-0.60596;
18:55:52.611,-0.58813,0.50171,-0.59399;
18:55:52.621,-0.58887,0.49902,-0.57227;
18:55:52.631,-0.61206,0.50439,-0.55298;
18:55:52.641,-0.62769,0.56055,-0.54736;
18:55:52.651,-0.61450,0.55078,-0.56079;
18:55:52.661,-0.62939,0.49292,-0.58496;
18:55:52.671,-0.62354,0.48755,-0.61475;
18:55:52.681,-0.60596,0.48267,-0.64063;
18:55:52.691,-0.59326,0.48853,-0.63818;
18:55:52.701,-0.56982,0.48828,-0.63599;
18:55:52.711,-0.56055,0.48730,-0.65112;
18:55:52.721,-0.56567,0.49170,-0.65796;
18:55:52.731,-0.56421,0.49219,-0.67212;
18:55:52.741,-0.57349,0.49561,-0.67651;
18:55:52.751,-0.56812,0.49609,-0.66016;
18:55:52.761,-0.56201,0.49829,-0.64380;
18:55:52.771,-0.57129,0.51489,-0.62891;
18:55:52.781,-0.57227,0.52075,-0.63013;
18:55:52.791,-0.57031,0.50977,-0.64111;
18:55:52.801,-0.56543,0.49878,-0.65845;
18:55:52.811,-0.55664,0.49390,-0.69312;
18:55:52.821,-0.54907,0.49487,-0.70801;
18:55:52.831,-0.53223,0.49097,-0.70728;
18:55:52.841,-0.52417,0.48486,-0.70239;
18:55:52.851,-0.52295,0.48853,-0.69751;
18:55:52.861,-0.51978,0.49268,-0.69434;
18:55:52.871,-0.53052,0.48877,-0.69165;
18:55:52.881,-0.54834,0.48682,-0.69702;
18:55:52.891,-0.55859,0.49170,-0.68994;
18:55:52.901,-0.57324,0.50000,-0.67261;
18:55:52.911,-0.57227,0.50024,-0.65723;
18:55:52.921,-0.57275,0.50708,-0.64233;
18:55:52.931,-0.57520,0.51563,-0.63354;
18:55:52.941,-0.56982,0.50708,-0.64697;
18:55:52.951,-0.56323,0.51294,-0.66748;
18:55:52.961,-0.56104,0.52124,-0.67114;
18:55:52.971,-0.56055,0.51465,-0.65796;
18:55:52.981,-0.56152,0.49658,-0.65698;
18:55:52.991,-0.57373,0.48926,-0.66772;
18:55:53.001,-0.55981,0.48218,-0.68140;
18:55:53.011,-0.55396,0.47559,-0.69336;
18:55:53.021,-0.55615,0.48901,-0.69189;
18:55:53.031,-0.56177,0.49316,-0.68140;
18:55:53.041,-0.56714,0.48779,-0.66211;
18:55:53.051,-0.56616,0.48853,-0.65552;
18:55:53.061,-0.56787,0.50366,-0.65747;
18:55:53.071,-0.55127,0.52563,-0.65088;
18:55:53.081,-0.54248,0.52710,-0.64697;
18:55:53.091,-0.55322,0.51880,-0.65332;
18:55:53.101,-0.56006,0.50464,-0.65991;
18:55:53.111,-0.56787,0.48633,-0.66284;
18:55:53.121,-0.56543,0.48462,-0.66724;
18:55:53.131,-0.56274,0.49414,-0.66943;
18:55:53.141,-0.56616,0.51074,-0.66504;
18:55:53.151,-0.55811,0.51929,-0.65674;
18:55:53.161,-0.55518,0.50708,-0.66260;
18:55:53.171,-0.55371,0.48877,-0.67578;
18:55:53.181,-0.54980,0.48755,-0.68384;
18:55:53.191,-0.54321,0.50293,-0.68115;
18:55:53.201,-0.54004,0.50952,-0.66455;
18:55:53.211,-0.54370,0.49951,-0.66675;
18:55:53.221,-0.53857,0.49683,-0.65259;
18:55:53.231,-0.54370,0.49683,-0.65039;
18:55:53.241,-0.54028,0.50391,-0.65503;
18:55:53.251,-0.54102,0.50830,-0.66064;
18:55:53.261,-0.53979,0.51074,-0.66309;
18:55:53.271,-0.54053,0.50708,-0.66772;
18:55:53.281,-0.53857,0.49878,-0.66602;
18:55:53.291,-0.53931,0.48682,-0.66748;
18:55:53.301,-0.54834,0.47729,-0.67358;
18:55:53.311,-0.57935,0.47754,-0.67749;
18:55:53.321,-0.55615,0.52197,-0.64429;
18:55:53.331,-0.54907,0.52783,-0.64233;
18:55:53.341,-0.56543,0.49463,-0.67114;
18:55:53.351,-0.57642,0.47925,-0.69287;
18:55:53.361,-0.55957,0.47754,-0.68018;
18:55:53.371,-0.55493,0.48267,-0.66724;
18:55:53.381,-0.56958,0.49634,-0.64355;
18:55:53.391,-0.58667,0.49854,-0.61182;
18:55:53.401,-0.61011,0.49731,-0.60742;
18:55:53.411,-0.62866,0.50854,-0.61011;
18:55:53.421,-0.63281,0.52148,-0.60742;
18:55:53.431,-0.63013,0.52734,-0.60498;
18:55:53.441,-0.59937,0.53320,-0.58911;
18:55:53.451,-0.59717,0.53174,-0.59985;
18:55:53.461,-0.62915,0.52515,-0.63330;
18:55:53.471,-0.62012,0.53101,-0.64844;
18:55:53.481,-0.58154,0.53687,-0.64941;
18:55:53.491,-0.55005,0.53296,-0.64941;
18:55:53.501,-0.54028,0.52222,-0.65869;
18:55:53.511,-0.55005,0.51123,-0.68457;
18:55:53.521,-0.54492,0.51831,-0.69727;
18:55:53.531,-0.52710,0.54785,-0.68604;
18:55:53.541,-0.53760,0.55225,-0.66064;
18:55:53.551,-0.55493,0.52075,-0.62842;
18:55:53.561,-0.55811,0.51587,-0.62695;
18:55:53.571,-0.56689,0.55029,-0.64038;
18:55:53.581,-0.57568,0.56616,-0.64526;
18:55:53.591,-0.56982,0.55005,-0.64868;
18:55:53.601,-0.56226,0.53857,-0.64453;
18:55:53.611,-0.56128,0.53198,-0.63818;
18:55:53.621,-0.56421,0.52954,-0.61987;
18:55:53.631,-0.58130,0.53027,-0.61523;
18:55:53.641,-0.59082,0.52319,-0.61377;
18:55:53.651,-0.59033,0.52979,-0.60986;
18:55:53.661,-0.58301,0.54126,-0.61279;
18:55:53.671,-0.57349,0.53833,-0.61084;
18:55:53.681,-0.57324,0.52563,-0.60840;
18:55:53.691,-0.57104,0.52026,-0.60449;
18:55:53.701,-0.58008,0.52954,-0.60645;
18:55:53.711,-0.59766,0.53418,-0.60449;
18:55:53.721,-0.60132,0.52490,-0.60669;
18:55:53.731,-0.58838,0.51880,-0.61597;
18:55:53.741,-0.57886,0.52539,-0.62695;
18:55:53.751,-0.57031,0.53516,-0.63062;
18:55:53.761,-0.56128,0.53271,-0.63062;
18:55:53.771,-0.56592,0.52563,-0.63281;
18:55:53.781,-0.57983,0.52197,-0.61963;
18:55:53.791,-0.58936,0.52075,-0.60718;
18:55:53.801,-0.59668,0.52197,-0.61133;
18:55:53.811,-0.59985,0.51514,-0.61523;
18:55:53.821,-0.59326,0.50562,-0.61694;
18:55:53.831,-0.58032,0.50586,-0.62280;
18:55:53.841,-0.57349,0.52173,-0.64648;
18:55:53.851,-0.56738,0.53589,-0.67603;
18:55:53.861,-0.55078,0.53589,-0.68774;
18:55:53.871,-0.54370,0.52417,-0.68970;
18:55:53.881,-0.53418,0.51025,-0.69116;
18:55:53.891,-0.52173,0.50854,-0.68799;
18:55:53.901,-0.52319,0.51904,-0.67017;
18:55:53.911,-0.52637,0.51855,-0.65869;
18:55:53.921,-0.53345,0.50415,-0.66528;
18:55:53.931,-0.54297,0.49951,-0.67554;
18:55:53.941,-0.54492,0.50293,-0.68164;
18:55:53.951,-0.53760,0.51343,-0.67456;
18:55:53.961,-0.53442,0.51904,-0.65942;
18:55:53.971,-0.54102,0.51318,-0.65210;
18:55:53.981,-0.54321,0.51050,-0.63867;
18:55:53.991,-0.55420,0.51440,-0.61987;
18:55:54.001,-0.57324,0.51489,-0.61475;
18:55:54.011,-0.57983,0.51465,-0.61938;
18:55:54.021,-0.57935,0.51782,-0.63159;
18:55:54.031,-0.58057,0.52197,-0.63770;
18:55:54.041,-0.57593,0.52686,-0.64136;
18:55:54.051,-0.56934,0.52881,-0.64746;
18:55:54.061,-0.56689,0.52979,-0.64355;
18:55:54.071,-0.56543,0.52808,-0.64380;
18:55:54.081,-0.56201,0.52832,-0.64453;
18:55:54.091,-0.55518,0.52881,-0.63550;
18:55:54.101,-0.56152,0.52515,-0.62744;
18:55:54.111,-0.57007,0.51855,-0.62085;
18:55:54.121,-0.57056,0.51855,-0.62158;
18:55:54.131,-0.56128,0.52832,-0.62158;
18:55:54.141,-0.55933,0.53711,-0.62036;
18:55:54.151,-0.56738,0.52930,-0.61572;
18:55:54.161,-0.57153,0.51929,-0.61377;
18:55:54.171,-0.57251,0.52002,-0.62256;
18:55:54.181,-0.57227,0.51660,-0.63721;
18:55:54.191,-0.57031,0.51099,-0.64771;
18:55:54.201,-0.56812,0.54175,-0.61914;
18:55:54.211,-0.57959,0.53979,-0.61157;
18:55:54.221,-0.57397,0.54077,-0.61084;
18:55:54.231,-0.56567,0.53540,-0.62012;
18:55:54.241,-0.55225,0.51782,-0.65112;
18:55:54.251,-0.54272,0.52002,-0.66382;
18:55:54.261,-0.54321,0.52417,-0.66650;
18:55:54.271,-0.54810,0.52393,-0.65820;
18:55:54.281,-0.56152,0.51611,-0.64307;
18:55:54.291,-0.56958,0.51392,-0.63647;
18:55:54.301,-0.57446,0.52222,-0.62427;
18:55:54.311,-0.57764,0.53638,-0.61182;
18:55:54.321,-0.57471,0.54346,-0.60278;
18:55:54.331,-0.58032,0.53735,-0.60083;
18:55:54.341,-0.58447,0.52881,-0.60278;
18:55:54.351,-0.58276,0.52612,-0.60938;
18:55:54.361,-0.58301,0.53027,-0.61792;
18:55:54.371,-0.57861,0.53271,-0.62231;
18:55:54.381,-0.57886,0.53198,-0.62329;
18:55:54.391,-0.57715,0.52637,-0.62549;
18:55:54.401,-0.57178,0.52075,-0.63770;
18:55:54.411,-0.56421,0.52344,-0.64990;
18:55:54.421,-0.55713,0.52612,-0.64771;
18:55:54.431,-0.55347,0.52368,-0.63867;
18:55:54.441,-0.55957,0.52661,-0.63501;
18:55:54.451,-0.56763,0.53345,-0.63037;
18:55:54.461,-0.56714,0.53540,-0.62646;
18:55:54.471,-0.56421,0.53564,-0.62085;
18:55:54.481,-0.56714,0.53418,-0.61914;
18:55:54.491,-0.57275,0.53003,-0.61768;
18:55:54.501,-0.57446,0.52612,-0.61963;
18:55:54.511,-0.57764,0.51978,-0.63037;
18:55:54.521,-0.57544,0.52515,-0.63721;
18:55:54.531,-0.56616,0.53198,-0.64063;
18:55:54.541,-0.56323,0.53296,-0.64282;
18:55:54.551,-0.56787,0.52979,-0.63770;
18:55:54.561,-0.57227,0.52002,-0.63452;
18:55:54.571,-0.57202,0.51636,-0.64233;
18:55:54.581,-0.56763,0.52856,-0.64429;
18:55:54.591,-0.56323,0.54199,-0.63477;
18:55:54.601,-0.56177,0.53369,-0.62476;
18:55:54.611,-0.56836,0.52124,-0.62598;
18:55:54.621,-0.57422,0.51636,-0.63403;
18:55:54.631,-0.57007,0.51709,-0.64160;
18:55:54.641,-0.56470,0.52661,-0.64551;
18:55:54.651,-0.55933,0.53516,-0.64063;
18:55:54.661,-0.55933,0.52979,-0.63232;
18:55:54.671,-0.56738,0.52954,-0.62256;
18:55:54.681,-0.57104,0.53320,-0.62036;
18:55:54.691,-0.57080,0.53198,-0.62231;
18:55:54.701,-0.57080,0.53198,-0.62598;
18:55:54.711,-0.57324,0.53345,-0.62842;
18:55:54.721,-0.57886,0.52417,-0.63037;
18:55:54.731,-0.57690,0.52319,-0.63452;
18:55:54.741,-0.56738,0.53735,-0.63672;
18:55:54.751,-0.56128,0.54443,-0.63062;
18:55:54.761,-0.56128,0.54175,-0.62183;
18:55:54.771,-0.56738,0.52856,-0.61694;
18:55:54.781,-0.56445,0.51831,-0.62549;
18:55:54.791,-0.56201,0.52075,-0.63306;
18:55:54.801,-0.56543,0.52271,-0.63501;
18:55:54.811,-0.56860,0.52686,-0.63550;
18:55:54.821,-0.57690,0.52710,-0.62866;
18:55:54.831,-0.58057,0.52319,-0.62256;
18:55:54.841,-0.58179,0.52783,-0.61694;
18:55:54.851,-0.57837,0.53809,-0.62109;
18:55:54.861,-0.57568,0.54126,-0.62695;
18:55:54.871,-0.57056,0.53638,-0.63306;
18:55:54.881,-0.56812,0.52808,-0.63330;
18:55:54.891,-0.56323,0.52515,-0.63354;
18:55:54.901,-0.55957,0.53296,-0.63672;
18:55:54.911,-0.56396,0.53369,-0.63623;
18:55:54.921,-0.56250,0.53320,-0.63159;
18:55:54.931,-0.56201,0.53247,-0.62036;
18:55:54.941,-0.56519,0.52417,-0.61938;
18:55:54.951,-0.56836,0.51611,-0.63745;
18:55:54.961,-0.56543,0.51831,-0.65283;
18:55:54.971,-0.56226,0.52563,-0.65894;
18:55:54.981,-0.55322,0.52832,-0.65942;
18:55:54.991,-0.55298,0.52441,-0.65527;
18:55:55.001,-0.55811,0.51831,-0.64697;
18:55:55.011,-0.56470,0.51440,-0.64185;
18:55:55.021,-0.56714,0.51880,-0.63843;
18:55:55.031,-0.56274,0.52856,-0.62280;
18:55:55.041,-0.56470,0.53735,-0.61523;
18:55:55.051,-0.57153,0.53809,-0.61475;
18:55:55.061,-0.57007,0.52124,-0.61743;
18:55:55.071,-0.56201,0.51392,-0.62695;
18:55:55.081,-0.55859,0.50854,-0.63159;
18:55:55.091,-0.55884,0.52124,-0.65259;
18:55:55.101,-0.56909,0.54028,-0.66797;
18:55:55.111,-0.56494,0.55322,-0.65820;
18:55:55.121,-0.54712,0.54517,-0.63257;
18:55:55.131,-0.54834,0.53735,-0.62256;
18:55:55.141,-0.55933,0.50635,-0.63110;
18:55:55.151,-0.56445,0.48877,-0.64307;
18:55:55.161,-0.57104,0.52295,-0.64746;
18:55:55.171,-0.57935,0.55249,-0.65894;
18:55:55.181,-0.57202,0.54175,-0.65845;
18:55:55.191,-0.56934,0.53418,-0.65088;
18:55:55.201,-0.58765,0.55127,-0.64746;
18:55:55.211,-0.58350,0.56372,-0.64160;
18:55:55.221,-0.56250,0.54834,-0.63550;
18:55:55.231,-0.55493,0.53174,-0.62427;
18:55:55.241,-0.55615,0.54883,-0.61865;
18:55:55.251,-0.55688,0.57031,-0.60449;
18:55:55.261,-0.55615,0.56763,-0.58911;
18:55:55.271,-0.55713,0.56445,-0.58154;
18:55:55.281,-0.56616,0.56665,-0.57275;
18:55:55.291,-0.57715,0.56274,-0.57520;
18:55:55.301,-0.57666,0.56812,-0.58203;
18:55:55.311,-0.57031,0.56836,-0.57495;
18:55:55.321,-0.57422,0.56494,-0.56787;
18:55:55.331,-0.57227,0.57324,-0.57617;
18:55:55.341,-0.57178,0.56470,-0.58447;
18:55:55.351,-0.59082,0.54883,-0.59937;
18:55:55.361,-0.59692,0.53589,-0.61426;
18:55:55.371,-0.59302,0.51685,-0.62158;
18:55:55.381,-0.60083,0.52686,-0.63647;
18:55:55.391,-0.60034,0.56006,-0.63159;
18:55:55.401,-0.59253,0.58057,-0.61035;
18:55:55.411,-0.59961,0.59033,-0.60522;
18:55:55.421,-0.60449,0.58716,-0.61133;
18:55:55.431,-0.59937,0.57739,-0.60840;
18:55:55.441,-0.58960,0.53955,-0.58350;
18:55:55.451,-0.59351,0.49146,-0.55103;
18:55:55.461,-0.60303,0.47876,-0.54492;
18:55:55.471,-0.59692,0.50513,-0.56274;
18:55:55.481,-0.59595,0.55396,-0.58179;
18:55:55.491,-0.60400,0.60449,-0.58667;
18:55:55.501,-0.59497,0.62451,-0.57739;
18:55:55.511,-0.60010,0.61060,-0.56812;
18:55:55.521,-0.61646,0.58325,-0.53467;
18:55:55.531,-0.62183,0.57178,-0.50488;
18:55:55.541,-0.61841,0.56982,-0.51318;
18:55:55.551,-0.62427,0.52417,-0.55688;
18:55:55.561,-0.61523,0.51196,-0.57910;
18:55:55.571,-0.59155,0.47290,-0.59473;
18:55:55.581,-0.58228,0.46118,-0.64575;
18:55:55.591,-0.55591,0.52319,-0.65186;
18:55:55.601,-0.53564,0.54321,-0.64355;
18:55:55.611,-0.53979,0.53979,-0.64136;
18:55:55.621,-0.54517,0.53760,-0.63892;
18:55:55.631,-0.55811,0.53638,-0.63623;
18:55:55.641,-0.57153,0.50903,-0.63306;
18:55:55.651,-0.57617,0.49561,-0.64600;
18:55:55.661,-0.57886,0.49536,-0.66333;
18:55:55.671,-0.57544,0.50073,-0.67725;
18:55:55.681,-0.56738,0.51514,-0.68311;
18:55:55.691,-0.55396,0.52466,-0.68530;
18:55:55.701,-0.54004,0.53271,-0.68848;
18:55:55.711,-0.53369,0.53394,-0.68848;
18:55:55.721,-0.53711,0.51978,-0.67529;
18:55:55.731,-0.53613,0.50244,-0.67407;
18:55:55.741,-0.53735,0.49414,-0.67236;
18:55:55.751,-0.54614,0.50220,-0.66089;
18:55:55.761,-0.55249,0.52368,-0.65259;
18:55:55.771,-0.56201,0.54785,-0.64185;
18:55:55.781,-0.56323,0.55640,-0.61987;
18:55:55.791,-0.57373,0.56104,-0.60767;
18:55:55.801,-0.57959,0.55981,-0.60889;
18:55:55.811,-0.58228,0.54834,-0.61060;
18:55:55.821,-0.58716,0.52515,-0.60010;
18:55:55.831,-0.59033,0.51294,-0.59204;
18:55:55.841,-0.59595,0.52417,-0.59668;
18:55:55.851,-0.59619,0.53979,-0.59741;
18:55:55.861,-0.58716,0.55078,-0.59497;
18:55:55.871,-0.58105,0.55127,-0.59399;
18:55:55.881,-0.57910,0.55347,-0.59473;
18:55:55.891,-0.57959,0.56030,-0.59302;
18:55:55.901,-0.58447,0.56274,-0.58545;
18:55:55.911,-0.59033,0.56201,-0.58081;
18:55:55.921,-0.60107,0.53174,-0.57715;
18:55:55.931,-0.59766,0.55176,-0.57251;
18:55:55.941,-0.60278,0.56079,-0.57251;
18:55:55.951,-0.59375,0.55225,-0.57251;
18:55:55.961,-0.58936,0.53467,-0.60474;
18:55:55.971,-0.58130,0.54443,-0.62061;
18:55:55.981,-0.57568,0.55176,-0.62036;
18:55:55.991,-0.56543,0.55249,-0.62012;
18:55:56.001,-0.56543,0.54907,-0.61523;
18:55:56.011,-0.57446,0.54028,-0.60693;
18:55:56.021,-0.57910,0.52588,-0.61060;
18:55:56.031,-0.58252,0.52734,-0.62427;
18:55:56.041,-0.58057,0.54272,-0.63110;
18:55:56.051,-0.57446,0.55005,-0.62549;
18:55:56.061,-0.57080,0.54614,-0.62183;
18:55:56.071,-0.56934,0.54419,-0.61377;
18:55:56.081,-0.57129,0.54224,-0.61133;
18:55:56.091,-0.57593,0.53809,-0.61279;
18:55:56.101,-0.57935,0.53271,-0.61157;
18:55:56.111,-0.57788,0.53247,-0.61694;
18:55:56.121,-0.57861,0.53394,-0.61841;
18:55:56.131,-0.57910,0.53540,-0.62451;
18:55:56.141,-0.57251,0.54248,-0.62524;
18:55:56.151,-0.56494,0.54907,-0.61621;
18:55:56.161,-0.56763,0.55981,-0.60303;
18:55:56.171,-0.57617,0.55566,-0.60205;
18:55:56.181,-0.58057,0.53394,-0.61182;
18:55:56.191,-0.58691,0.51636,-0.60815;
18:55:56.201,-0.58789,0.51709,-0.60791;
18:55:56.211,-0.58447,0.52734,-0.61279;
18:55:56.221,-0.58032,0.53076,-0.61108;
18:55:56.231,-0.57935,0.53662,-0.60645;
18:55:56.241,-0.57788,0.55103,-0.60547;
18:55:56.251,-0.57397,0.56055,-0.61523;
18:55:56.261,-0.57153,0.55127,-0.62842;
18:55:56.271,-0.56909,0.53467,-0.62109;
18:55:56.281,-0.56909,0.53394,-0.61230;
18:55:56.291,-0.57471,0.54272,-0.60669;
18:55:56.301,-0.57910,0.53906,-0.60400;
18:55:56.311,-0.57813,0.52588,-0.60669;
18:55:56.321,-0.57666,0.53052,-0.60986;
18:55:56.331,-0.57446,0.54761,-0.61450;
18:55:56.341,-0.57056,0.55347,-0.61450;
18:55:56.351,-0.57129,0.54736,-0.61035;
18:55:56.361,-0.57690,0.53931,-0.60742;
18:55:56.371,-0.57520,0.54126,-0.60669;
18:55:56.381,-0.57813,0.54590,-0.60254;
18:55:56.391,-0.58569,0.53564,-0.60278;
18:55:56.401,-0.58838,0.52808,-0.60229;
18:55:56.411,-0.58472,0.53613,-0.60840;
18:55:56.421,-0.58008,0.54175,-0.61499;
18:55:56.431,-0.57764,0.53760,-0.61475;
18:55:56.441,-0.57568,0.53198,-0.61304;
18:55:56.451,-0.57080,0.53784,-0.61011;
18:55:56.461,-0.56641,0.54248,-0.61450;
18:55:56.471,-0.56665,0.54395,-0.61841;
18:55:56.481,-0.57129,0.53345,-0.62842;
18:55:56.491,-0.56958,0.52734,-0.64136;
18:55:56.501,-0.56250,0.53345,-0.65015;
18:55:56.511,-0.56177,0.53271,-0.65479;
18:55:56.521,-0.56128,0.52539,-0.64063;
18:55:56.531,-0.56299,0.51831,-0.62915;
18:55:56.541,-0.56543,0.52808,-0.62842;
18:55:56.551,-0.56763,0.53052,-0.62915;
18:55:56.561,-0.56934,0.52197,-0.62817;
18:55:56.571,-0.56641,0.52075,-0.62817;
18:55:56.581,-0.56689,0.52563,-0.63013;
18:55:56.591,-0.57349,0.52759,-0.63550;
18:55:56.601,-0.57959,0.52612,-0.63623;
18:55:56.611,-0.57568,0.51855,-0.62378;
18:55:56.621,-0.57153,0.51099,-0.62598;
18:55:56.631,-0.56152,0.52710,-0.63916;
18:55:56.641,-0.55859,0.52246,-0.65283;
18:55:56.651,-0.55762,0.51172,-0.66260;
18:55:56.661,-0.55664,0.51001,-0.66724;
18:55:56.671,-0.55298,0.51807,-0.66772;
18:55:56.681,-0.54517,0.51904,-0.66870;
18:55:56.691,-0.54053,0.55688,-0.62842;
18:55:56.701,-0.56738,0.55151,-0.61841;
18:55:56.711,-0.53931,0.49609,-0.64453;
18:55:56.721,-0.52148,0.48975,-0.63574;
18:55:56.731,-0.56421,0.49146,-0.65234;
18:55:56.741,-0.56177,0.51636,-0.63965;
18:55:56.751,-0.57397,0.56226,-0.62695;
18:55:56.761,-0.58325,0.56396,-0.65405;
18:55:56.771,-0.55151,0.51221,-0.65723;
18:55:56.781,-0.57739,0.47607,-0.65161;
18:55:56.791,-0.55371,0.52051,-0.62720;
18:55:56.801,-0.54712,0.48340,-0.68701;
18:55:56.811,-0.52466,0.50366,-0.73853;
18:55:56.821,-0.52393,0.51196,-0.69336;
18:55:56.831,-0.52734,0.51147,-0.69727;
18:55:56.841,-0.51758,0.51514,-0.68481;
18:55:56.851,-0.52222,0.52002,-0.67554;
18:55:56.861,-0.53638,0.52710,-0.67749;
18:55:56.871,-0.54858,0.53394,-0.67432;
18:55:56.881,-0.54980,0.53125,-0.64941;
18:55:56.891,-0.55762,0.54053,-0.63037;
18:55:56.901,-0.58374,0.53833,-0.61890;
18:55:56.911,-0.59155,0.53442,-0.61182;
18:55:56.921,-0.58472,0.54053,-0.62476;
18:55:56.931,-0.59009,0.54419,-0.65234;
18:55:56.941,-0.58740,0.54028,-0.65308;
18:55:56.951,-0.55542,0.51416,-0.62524;
18:55:56.961,-0.53442,0.50366,-0.61011;
18:55:56.971,-0.53638,0.52759,-0.61963;
18:55:56.981,-0.54810,0.54956,-0.64087;
18:55:56.991,-0.54712,0.54004,-0.66382;
18:55:57.001,-0.54175,0.52930,-0.68164;
18:55:57.011,-0.54712,0.52954,-0.67432;
18:55:57.021,-0.54053,0.53027,-0.65161;
18:55:57.031,-0.53638,0.52856,-0.62646;
18:55:57.041,-0.54248,0.51953,-0.62354;
18:55:57.051,-0.54834,0.52148,-0.63916;
18:55:57.061,-0.56055,0.53760,-0.64624;
18:55:57.071,-0.57104,0.54663,-0.63696;
18:55:57.081,-0.58130,0.54761,-0.62915;
18:55:57.091,-0.56470,0.54102,-0.60962;
18:55:57.101,-0.54370,0.51831,-0.59961;
18:55:57.111,-0.57788,0.52661,-0.62891;
18:55:57.121,-0.58472,0.55444,-0.62354;
18:55:57.131,-0.56860,0.53955,-0.60669;
18:55:57.141,-0.56323,0.51514,-0.62427;
18:55:57.151,-0.55249,0.54492,-0.64551;
18:55:57.161,-0.56494,0.58862,-0.64941;
18:55:57.171,-0.56030,0.57593,-0.62402;
18:55:57.181,-0.55908,0.53442,-0.61572;
18:55:57.191,-0.57056,0.52881,-0.62231;
18:55:57.201,-0.57544,0.53979,-0.62280;
18:55:57.211,-0.58618,0.53052,-0.61499;
18:55:57.221,-0.57739,0.52930,-0.60791;
18:55:57.231,-0.56812,0.55054,-0.63501;
18:55:57.241,-0.55664,0.57813,-0.64380;
18:55:57.251,-0.55127,0.58032,-0.63550;
18:55:57.261,-0.56177,0.56104,-0.62451;
18:55:57.271,-0.56299,0.55151,-0.61499;
18:55:57.281,-0.52417,0.51221,-0.62280;
18:55:57.291,-0.57959,0.50317,-0.62476;
18:55:57.301,-0.60498,0.52295,-0.62036;
18:55:57.311,-0.58325,0.51489,-0.60596;
18:55:57.321,-0.60376,0.51343,-0.60254;
18:55:57.331,-0.61328,0.51807,-0.61401;
18:55:57.341,-0.52661,0.47974,-0.62720;
18:55:57.351,-0.54004,0.52100,-0.62378;
18:55:57.361,-0.59790,0.62305,-0.61108;
18:55:57.371,-0.56250,0.64624,-0.59521;
18:55:57.381,-0.57544,0.61133,-0.58423;
18:55:57.391,-0.57324,0.57715,-0.57764;
18:55:57.401,-0.61353,0.58569,-0.57495;
18:55:57.411,-0.66699,0.52710,-0.57642;
18:55:57.421,-0.64917,0.47412,-0.58423;
18:55:57.431,-0.60352,0.45825,-0.59570;
18:55:57.441,-0.59863,0.47144,-0.61133;
18:55:57.451,-0.62280,0.55151,-0.61426;
18:55:57.461,-0.59644,0.60913,-0.60742;
18:55:57.471,-0.52930,0.59985,-0.61792;
18:55:57.481,-0.57495,0.57593,-0.60693;
18:55:57.491,-0.56665,0.53149,-0.59741;
18:55:57.501,-0.52808,0.46460,-0.61377;
18:55:57.511,-0.54980,0.49731,-0.64697;
18:55:57.521,-0.56592,0.57397,-0.66187;
18:55:57.531,-0.58032,0.57349,-0.66357;
18:55:57.541,-0.57813,0.52393,-0.63867;
18:55:57.551,-0.55005,0.53955,-0.63623;
18:55:57.561,-0.54932,0.58130,-0.65503;
18:55:57.571,-0.57861,0.55103,-0.65283;
18:55:57.581,-0.56177,0.49023,-0.65820;
18:55:57.591,-0.54565,0.46484,-0.66870;
18:55:57.601,-0.56714,0.48975,-0.68213;
18:55:57.611,-0.56641,0.51563,-0.66870;
18:55:57.621,-0.57349,0.53394,-0.65723;
18:55:57.631,-0.57056,0.48022,-0.65381;
18:55:57.641,-0.57080,0.43921,-0.67798;
18:55:57.651,-0.54053,0.44189,-0.67236;
18:55:57.661,-0.53296,0.49414,-0.64209;
18:55:57.671,-0.56665,0.48291,-0.65991;
18:55:57.681,-0.61328,0.46997,-0.67822;
18:55:57.691,-0.59253,0.52759,-0.69849;
18:55:57.701,-0.56079,0.57959,-0.67310;
18:55:57.711,-0.56860,0.59888,-0.63989;
18:55:57.721,-0.58960,0.59448,-0.63354;
18:55:57.731,-0.56812,0.56543,-0.64014;
18:55:57.741,-0.57861,0.54688,-0.64575;
18:55:57.751,-0.58569,0.54175,-0.64893;
18:55:57.761,-0.55225,0.50684,-0.64990;
18:55:57.771,-0.51611,0.47900,-0.63135;
18:55:57.781,-0.50171,0.47998,-0.61694;
18:55:57.791,-0.49927,0.53247,-0.61743;
18:55:57.801,-0.52612,0.55713,-0.62158;
18:55:57.811,-0.54468,0.55396,-0.64038;
18:55:57.821,-0.54443,0.51709,-0.64282;
18:55:57.831,-0.55469,0.50073,-0.63013;
18:55:57.841,-0.56396,0.54346,-0.61987;
18:55:57.851,-0.58301,0.55127,-0.61743;
18:55:57.861,-0.58765,0.53711,-0.61890;
18:55:57.871,-0.59448,0.49634,-0.63916;
18:55:57.881,-0.59473,0.46997,-0.64380;
18:55:57.891,-0.58887,0.45459,-0.65454;
18:55:57.901,-0.58447,0.45386,-0.67578;
18:55:57.911,-0.55981,0.46216,-0.67871;
18:55:57.921,-0.54956,0.47339,-0.69092;
18:55:57.931,-0.54614,0.48389,-0.69849;
18:55:57.941,-0.53491,0.48535,-0.69482;
18:55:57.951,-0.53320,0.48486,-0.69263;
18:55:57.961,-0.56201,0.47217,-0.69727;
18:55:57.971,-0.54541,0.45776,-0.69507;
18:55:57.981,-0.55298,0.46021,-0.69458;
18:55:57.991,-0.54468,0.46802,-0.69995;
18:55:58.001,-0.52417,0.46729,-0.70630;
18:55:58.011,-0.52905,0.47241,-0.71143;
18:55:58.021,-0.53882,0.47021,-0.71313;
18:55:58.031,-0.53247,0.46924,-0.71509;
18:55:58.041,-0.52319,0.47852,-0.70703;
18:55:58.051,-0.54932,0.48901,-0.70044;
18:55:58.061,-0.55664,0.49170,-0.69922;
18:55:58.071,-0.55933,0.49072,-0.68066;
18:55:58.081,-0.57544,0.49854,-0.64893;
18:55:58.091,-0.58813,0.49048,-0.64185;
18:55:58.101,-0.59302,0.46997,-0.65820;
18:55:58.111,-0.59424,0.47095,-0.66797;
18:55:58.121,-0.57349,0.48535,-0.68164;
18:55:58.131,-0.53784,0.49438,-0.70239;
18:55:58.141,-0.52148,0.50586,-0.71655;
18:55:58.151,-0.44409,0.49512,-0.73022;
18:55:58.161,-0.43921,0.45337,-0.74316;
18:55:58.171,-0.49463,0.44946,-0.76587;
18:55:58.181,-0.49023,0.47314,-0.78369;
18:55:58.191,-0.48926,0.47900,-0.77026;
18:55:58.201,-0.50659,0.47388,-0.74927;
18:55:58.211,-0.51074,0.46948,-0.72437;
18:55:58.221,-0.50439,0.47290,-0.70752;
18:55:58.231,-0.51270,0.47656,-0.70166;
18:55:58.241,-0.53027,0.46973,-0.68994;
18:55:58.251,-0.57153,0.45215,-0.68335;
18:55:58.261,-0.61060,0.42871,-0.67529;
18:55:58.271,-0.60449,0.42749,-0.65356;
18:55:58.281,-0.59692,0.44409,-0.64063;
18:55:58.291,-0.62988,0.45337,-0.64697;
18:55:58.301,-0.65674,0.45508,-0.64307;
18:55:58.311,-0.64160,0.46509,-0.63721;
18:55:58.321,-0.61328,0.48071,-0.65527;
18:55:58.331,-0.58716,0.49438,-0.66724;
18:55:58.341,-0.56689,0.50879,-0.65210;
18:55:58.351,-0.54492,0.50537,-0.64893;
18:55:58.361,-0.53076,0.50073,-0.66382;
18:55:58.371,-0.52417,0.50293,-0.67261;
18:55:58.381,-0.53198,0.49976,-0.67456;
18:55:58.391,-0.55420,0.49756,-0.67456;
18:55:58.401,-0.57129,0.50732,-0.66357;
18:55:58.411,-0.58398,0.51514,-0.65283;
18:55:58.421,-0.58862,0.53833,-0.63965;
18:55:58.431,-0.58423,0.56226,-0.61621;
18:55:58.441,-0.57227,0.55347,-0.59717;
18:55:58.451,-0.57178,0.53345,-0.58984;
18:55:58.461,-0.58179,0.50513,-0.59033;
18:55:58.471,-0.58716,0.47363,-0.64795;
18:55:58.481,-0.58789,0.63354,-0.65698;
18:55:58.491,-0.55664,0.51416,-0.63989;
18:55:58.501,-0.63428,0.54346,-0.66699;
18:55:58.511,-0.63208,0.53296,-0.61328;
18:55:58.521,-0.64819,0.52148,-0.59058;
18:55:58.531,-0.67773,0.53687,-0.59888;
18:55:58.541,-0.64868,0.53345,-0.60840;
18:55:58.551,-0.58984,0.52710,-0.61182;
18:55:58.561,-0.59668,0.52441,-0.61084;
18:55:58.571,-0.61206,0.52856,-0.61353;
18:55:58.581,-0.60498,0.53491,-0.61914;
18:55:58.591,-0.58423,0.53418,-0.62402;
18:55:58.601,-0.52563,0.53076,-0.63232;
18:55:58.611,-0.48315,0.50171,-0.65088;
18:55:58.621,-0.48486,0.46167,-0.66064;
18:55:58.631,-0.50464,0.44653,-0.66602;
18:55:58.641,-0.50171,0.46313,-0.68506;
18:55:58.651,-0.51123,0.48682,-0.70117;
18:55:58.661,-0.52222,0.50220,-0.70752;
18:55:58.671,-0.51172,0.50000,-0.70435;
18:55:58.681,-0.49463,0.48022,-0.69678;
18:55:58.691,-0.49487,0.47729,-0.68872;
18:55:58.701,-0.51660,0.49976,-0.67798;
18:55:58.711,-0.53052,0.50757,-0.67212;
18:55:58.721,-0.55151,0.50537,-0.67041;
18:55:58.731,-0.56201,0.49976,-0.67358;
18:55:58.741,-0.56470,0.50195,-0.67041;
18:55:58.751,-0.56689,0.50879,-0.65723;
18:55:58.761,-0.57617,0.50830,-0.66870;
18:55:58.771,-0.58398,0.51221,-0.68384;
18:55:58.781,-0.58179,0.49878,-0.69727;
18:55:58.791,-0.58350,0.49536,-0.70703;
18:55:58.801,-0.56909,0.50415,-0.70508;
18:55:58.811,-0.55151,0.49194,-0.69897;
18:55:58.821,-0.53955,0.47754,-0.68481;
18:55:58.831,-0.53296,0.47388,-0.67554;
18:55:58.841,-0.53394,0.48877,-0.66895;
18:55:58.851,-0.52588,0.50220,-0.65845;
18:55:58.861,-0.50024,0.50903,-0.65576;
18:55:58.871,-0.53027,0.52124,-0.65601;
18:55:58.881,-0.54102,0.51343,-0.66333;
18:55:58.891,-0.55249,0.49365,-0.67749;
18:55:58.901,-0.56299,0.50317,-0.65820;
18:55:58.911,-0.57178,0.51025,-0.63745;
18:55:58.921,-0.58472,0.50171,-0.63037;
18:55:58.931,-0.58350,0.50439,-0.62695;
18:55:58.941,-0.59155,0.49878,-0.63281;
18:55:58.951,-0.57056,0.49292,-0.63916;
18:55:58.961,-0.57178,0.50098,-0.64282;
18:55:58.971,-0.56494,0.50610,-0.64478;
18:55:58.981,-0.56421,0.51123,-0.64795;
18:55:58.991,-0.57007,0.51123,-0.64795;
18:55:59.001,-0.56372,0.50171,-0.65137;
18:55:59.011,-0.55762,0.50537,-0.66406;
18:55:59.021,-0.55078,0.50952,-0.66870;
18:55:59.031,-0.55005,0.50537,-0.66479;
18:55:59.041,-0.56177,0.49487,-0.66992;
18:55:59.051,-0.56567,0.47681,-0.67114;
18:55:59.061,-0.57446,0.48145,-0.66724;
18:55:59.071,-0.57568,0.49927,-0.66309;
18:55:59.081,-0.58594,0.50879,-0.65381;
18:55:59.091,-0.57104,0.50366,-0.65552;
18:55:59.101,-0.54858,0.48804,-0.67554;
18:55:59.111,-0.54785,0.47852,-0.69214;
18:55:59.121,-0.53320,0.47583,-0.70703;
18:55:59.131,-0.52515,0.47412,-0.71533;
18:55:59.141,-0.52148,0.48340,-0.71191;
18:55:59.151,-0.52612,0.49585,-0.70630;
18:55:59.161,-0.52710,0.50244,-0.69116;
18:55:59.171,-0.51978,0.49634,-0.66846;
18:55:59.181,-0.48633,0.48291,-0.64258;
18:55:59.191,-0.46924,0.46655,-0.63062;
18:55:59.201,-0.49023,0.43506,-0.62988;
18:55:59.211,-0.51025,0.44019,-0.62183;
18:55:59.221,-0.55151,0.47681,-0.63208;
18:55:59.231,-0.58325,0.50024,-0.66724;
18:55:59.241,-0.59839,0.51318,-0.69727;
18:55:59.251,-0.65332,0.53296,-0.71826;
18:55:59.261,-0.58105,0.79028,-0.59521;
18:55:59.271,-0.61548,0.59131,-0.55786;
18:55:59.281,-0.61572,0.40918,-0.52393;
18:55:59.291,-0.61401,0.37622,-0.51440;
18:55:59.301,-0.62842,0.44995,-0.57715;
18:55:59.311,-0.59668,0.54077,-0.63647;
18:55:59.321,-0.55200,0.55322,-0.63892;
18:55:59.331,-0.54810,0.51855,-0.68506;
18:55:59.341,-0.53076,0.50854,-0.63745;
18:55:59.351,-0.56934,0.53027,-0.62549;
18:55:59.361,-0.58105,0.52466,-0.61792;
18:55:59.371,-0.58887,0.49609,-0.64087;
18:55:59.381,-0.57739,0.51880,-0.63428;
18:55:59.391,-0.57788,0.52246,-0.62866;
18:55:59.401,-0.57104,0.51782,-0.63550;
18:55:59.411,-0.56079,0.52026,-0.64136;
18:55:59.421,-0.55737,0.51294,-0.64575;
18:55:59.431,-0.55322,0.50391,-0.64990;
18:55:59.441,-0.55029,0.49902,-0.65942;
18:55:59.451,-0.55347,0.50073,-0.66455;
18:55:59.461,-0.55884,0.50293,-0.66479;
18:55:59.471,-0.56226,0.50415,-0.66821;
18:55:59.481,-0.56665,0.50024,-0.67041;
18:55:59.491,-0.56323,0.50464,-0.66357;
18:55:59.501,-0.56372,0.51074,-0.66357;
18:55:59.511,-0.56909,0.50659,-0.66016;
18:55:59.521,-0.56543,0.50244,-0.65332;
18:55:59.531,-0.55981,0.51440,-0.65332;
18:55:59.541,-0.55908,0.53174,-0.65454;
18:55:59.551,-0.56616,0.51733,-0.65845;
18:55:59.561,-0.56982,0.48804,-0.66284;
18:55:59.571,-0.56763,0.48071,-0.66919;
18:55:59.581,-0.56177,0.48730,-0.67310;
18:55:59.591,-0.55151,0.50586,-0.67261;
18:55:59.601,-0.55103,0.52124,-0.66309;
18:55:59.611,-0.54785,0.52368,-0.65747;
18:55:59.621,-0.54419,0.53076,-0.65210;
18:55:59.631,-0.55469,0.52588,-0.64844;
18:55:59.641,-0.56348,0.51978,-0.64258;
18:55:59.651,-0.56763,0.51880,-0.64185;
18:55:59.661,-0.57495,0.51001,-0.64185;
18:55:59.671,-0.57690,0.50537,-0.64355;
18:55:59.681,-0.56958,0.51514,-0.64551;
18:55:59.691,-0.56519,0.51709,-0.63940;
18:55:59.701,-0.56763,0.51636,-0.63916;
18:55:59.711,-0.56396,0.52783,-0.63452;
18:55:59.721,-0.55518,0.54248,-0.62354;
18:55:59.731,-0.56519,0.54321,-0.61401;
18:55:59.741,-0.58154,0.52417,-0.61450;
18:55:59.751,-0.58350,0.50952,-0.61694;
18:55:59.761,-0.58154,0.51099,-0.61865;
18:55:59.771,-0.58472,0.51367,-0.62354;
18:55:59.781,-0.58667,0.50732,-0.62573;
18:55:59.791,-0.58252,0.50781,-0.62793;
18:55:59.801,-0.57495,0.51294,-0.63135;
18:55:59.811,-0.57129,0.51489,-0.62524;
18:55:59.821,-0.57227,0.51904,-0.61353;
18:55:59.831,-0.57715,0.52759,-0.61572;
18:55:59.841,-0.58325,0.52539,-0.62207;
18:55:59.851,-0.57983,0.51855,-0.62598;
18:55:59.861,-0.58032,0.51147,-0.62573;
18:55:59.871,-0.58423,0.50269,-0.63062;
18:55:59.881,-0.58105,0.50146,-0.63867;
18:55:59.891,-0.57520,0.50464,-0.63745;
18:55:59.901,-0.57007,0.50757,-0.63550;
18:55:59.911,-0.56641,0.51025,-0.64282;
18:55:59.921,-0.56372,0.51514,-0.64355;
18:55:59.931,-0.56177,0.51929,-0.64600;
18:55:59.941,-0.56348,0.51831,-0.66040;
18:55:59.951,-0.56616,0.51221,-0.66748;
18:55:59.961,-0.55981,0.50806,-0.66699;
18:55:59.971,-0.55957,0.50317,-0.66431;
18:55:59.981,-0.56421,0.49902,-0.65894;
18:55:59.991,-0.56323,0.50488,-0.65601;
18:56:00.001,-0.56421,0.50562,-0.65454;
18:56:00.011,-0.56104,0.50659,-0.65112;
18:56:00.021,-0.55371,0.51831,-0.65210;
18:56:00.031,-0.54907,0.52930,-0.65796;
18:56:00.041,-0.54980,0.53149,-0.66333;
18:56:00.051,-0.55225,0.52002,-0.65674;
18:56:00.061,-0.55957,0.51270,-0.65601;
18:56:00.071,-0.56567,0.51123,-0.65259;
18:56:00.081,-0.56763,0.51318,-0.64844;
18:56:00.091,-0.57422,0.51099,-0.64087;
18:56:00.101,-0.58130,0.50879,-0.62964;
18:56:00.111,-0.58350,0.50952,-0.62720;
18:56:00.121,-0.58423,0.50586,-0.62891;
18:56:00.131,-0.58252,0.50049,-0.63037;
18:56:00.141,-0.58105,0.49829,-0.62793;
18:56:00.151,-0.57764,0.50928,-0.62891;
18:56:00.161,-0.57227,0.52637,-0.63428;
18:56:00.171,-0.57056,0.52905,-0.64551;
18:56:00.181,-0.56030,0.50928,-0.65649;
18:56:00.191,-0.56274,0.50195,-0.64844;
18:56:00.201,-0.57251,0.51196,-0.64014;
18:56:00.211,-0.57959,0.50830,-0.63623;
18:56:00.221,-0.57813,0.51758,-0.63062;
18:56:00.231,-0.57739,0.51709,-0.63110;
18:56:00.241,-0.57446,0.52002,-0.63452;
18:56:00.251,-0.57202,0.51685,-0.63989;
18:56:00.261,-0.57324,0.50757,-0.64087;
18:56:00.271,-0.57202,0.50708,-0.64063;
18:56:00.281,-0.56958,0.50952,-0.63818;
18:56:00.291,-0.57178,0.51660,-0.63232;
18:56:00.301,-0.57471,0.51709,-0.63159;
18:56:00.311,-0.57495,0.51563,-0.63135;
18:56:00.321,-0.57642,0.51001,-0.63940;
18:56:00.331,-0.57422,0.51025,-0.64819;
18:56:00.341,-0.57007,0.51709,-0.65088;
18:56:00.351,-0.56372,0.52271,-0.65259;
18:56:00.361,-0.56055,0.52539,-0.64795;
18:56:00.371,-0.56079,0.52319,-0.64917;
18:56:00.381,-0.56299,0.51294,-0.64819;
18:56:00.391,-0.56372,0.50366,-0.64282;
18:56:00.401,-0.57031,0.50781,-0.64087;
18:56:00.411,-0.57739,0.51196,-0.63916;
18:56:00.421,-0.57471,0.51172,-0.64063;
18:56:00.431,-0.57397,0.51074,-0.64063;
18:56:00.441,-0.57056,0.51831,-0.63599;
18:56:00.451,-0.56909,0.52930,-0.63159;
18:56:00.461,-0.57202,0.52637,-0.62720;
18:56:00.471,-0.57397,0.51904,-0.63232;
18:56:00.481,-0.57178,0.51538,-0.64233;
18:56:00.491,-0.57446,0.51196,-0.64844;
18:56:00.501,-0.57251,0.50806,-0.65405;
18:56:00.511,-0.56812,0.50098,-0.65869;
18:56:00.521,-0.56665,0.50342,-0.65186;
18:56:00.531,-0.56299,0.51514,-0.64087;
18:56:00.541,-0.56226,0.52539,-0.63208;
18:56:00.551,-0.56909,0.53125,-0.62256;
18:56:00.561,-0.57520,0.52808,-0.62695;
18:56:00.571,-0.57739,0.51904,-0.63843;
18:56:00.581,-0.57373,0.50977,-0.65601;
18:56:00.591,-0.56567,0.50830,-0.65698;
18:56:00.601,-0.56079,0.51172,-0.65283;
18:56:00.611,-0.56274,0.51099,-0.64868;
18:56:00.621,-0.56763,0.50781,-0.64551;
18:56:00.631,-0.56689,0.50781,-0.64331;
18:56:00.641,-0.56787,0.51489,-0.63843;
18:56:00.651,-0.56860,0.52295,-0.63574;
18:56:00.661,-0.57153,0.52026,-0.63159;
18:56:00.671,-0.57251,0.51880,-0.63257;
18:56:00.681,-0.57104,0.52368,-0.63550;
18:56:00.691,-0.57397,0.51807,-0.63794;
18:56:00.701,-0.57617,0.50952,-0.63818;
18:56:00.711,-0.57788,0.50928,-0.63208;
18:56:00.721,-0.58057,0.50659,-0.63159;
18:56:00.731,-0.57690,0.50562,-0.63159;
18:56:00.741,-0.56982,0.51392,-0.63184;
18:56:00.751,-0.56909,0.52368,-0.63354;
18:56:00.761,-0.56982,0.52295,-0.63110;
18:56:00.771,-0.57251,0.51270,-0.63281;
18:56:00.781,-0.57129,0.51147,-0.63477;
18:56:00.791,-0.57397,0.52393,-0.63623;
18:56:00.801,-0.57422,0.51587,-0.63940;
18:56:00.811,-0.57227,0.50366,-0.64746;
18:56:00.821,-0.57080,0.50024,-0.65649;
18:56:00.831,-0.56689,0.50537,-0.66016;
18:56:00.841,-0.55688,0.51538,-0.65698;
18:56:00.851,-0.54932,0.52515,-0.64746;
18:56:00.861,-0.55518,0.53516,-0.63647;
18:56:00.871,-0.56274,0.54126,-0.63208;
18:56:00.881,-0.57104,0.52637,-0.62939;
18:56:00.891,-0.57959,0.50684,-0.63257;
18:56:00.901,-0.58154,0.50366,-0.63770;
18:56:00.911,-0.58179,0.51294,-0.63013;
18:56:00.921,-0.57837,0.51880,-0.62817;
18:56:00.931,-0.57959,0.51440,-0.62842;
18:56:00.941,-0.57568,0.51343,-0.62939;
18:56:00.951,-0.56812,0.51636,-0.62622;
18:56:00.961,-0.56885,0.52295,-0.62671;
18:56:00.971,-0.57397,0.51782,-0.63623;
18:56:00.981,-0.57446,0.50439,-0.64648;
18:56:00.991,-0.56885,0.50586,-0.65112;
18:56:01.001,-0.57031,0.51392,-0.65527;
18:56:01.011,-0.57007,0.51660,-0.65503;
18:56:01.021,-0.56348,0.51099,-0.64624;
18:56:01.031,-0.56641,0.52148,-0.63086;
18:56:01.041,-0.57520,0.50195,-0.62964;
18:56:01.051,-0.58057,0.50684,-0.64258;
18:56:01.061,-0.56714,0.51318,-0.65112;
18:56:01.071,-0.55981,0.51050,-0.65356;
18:56:01.081,-0.56079,0.51563,-0.65625;
18:56:01.091,-0.56079,0.51489,-0.65527;
18:56:01.101,-0.56348,0.51318,-0.65332;
18:56:01.111,-0.57056,0.51025,-0.64795;
18:56:01.121,-0.57324,0.50781,-0.63940;
18:56:01.131,-0.57349,0.51074,-0.63599;
18:56:01.141,-0.57422,0.51343,-0.63550;
18:56:01.151,-0.57544,0.50952,-0.63818;
18:56:01.161,-0.57568,0.50439,-0.64502;
18:56:01.171,-0.57129,0.50562,-0.64673;
18:56:01.181,-0.56494,0.51050,-0.64795;
18:56:01.191,-0.56421,0.51587,-0.64966;
18:56:01.201,-0.56641,0.51685,-0.64697;
18:56:01.211,-0.56982,0.51392,-0.64722;
18:56:01.221,-0.56763,0.51880,-0.64185;
18:56:01.231,-0.56445,0.53003,-0.63623;
18:56:01.241,-0.57080,0.52710,-0.62964;
18:56:01.251,-0.57715,0.51904,-0.62793;
18:56:01.261,-0.57910,0.51758,-0.62842;
18:56:01.271,-0.58057,0.50464,-0.63086;
18:56:01.281,-0.57959,0.49683,-0.63843;
18:56:01.291,-0.57764,0.50195,-0.64185;
18:56:01.301,-0.57935,0.50195,-0.63892;
18:56:01.311,-0.57520,0.50903,-0.63306;
18:56:01.321,-0.56665,0.52783,-0.63574;
18:56:01.331,-0.56079,0.54639,-0.63110;
18:56:01.341,-0.56763,0.53955,-0.62061;
18:56:01.351,-0.57886,0.51318,-0.62036;
18:56:01.361,-0.57886,0.50146,-0.62598;
18:56:01.371,-0.57642,0.50952,-0.62866;
18:56:01.381,-0.57935,0.51611,-0.63062;
18:56:01.391,-0.58276,0.50415,-0.63916;
18:56:01.401,-0.57788,0.49878,-0.64478;
18:56:01.411,-0.57764,0.49683,-0.63623;
18:56:01.421,-0.57471,0.51025,-0.62573;
18:56:01.431,-0.56152,0.53638,-0.61816;
18:56:01.441,-0.56323,0.54858,-0.61450;
18:56:01.451,-0.57275,0.52783,-0.61377;
18:56:01.461,-0.57031,0.50806,-0.62183;
18:56:01.471,-0.56958,0.50635,-0.62671;
18:56:01.481,-0.58472,0.48633,-0.63892;
18:56:01.491,-0.59253,0.48315,-0.64673;
18:56:01.501,-0.58374,0.51929,-0.62549;
18:56:01.511,-0.57861,0.55591,-0.61060;
18:56:01.521,-0.56958,0.56714,-0.60938;
18:56:01.531,-0.55054,0.55493,-0.60425;
18:56:01.541,-0.54126,0.52954,-0.59644;
18:56:01.551,-0.56323,0.49512,-0.59521;
18:56:01.561,-0.59277,0.46875,-0.60352;
18:56:01.571,-0.60571,0.48047,-0.56909;
18:56:01.581,-0.62256,0.49585,-0.51025;
18:56:01.591,-0.65186,0.48169,-0.51489;
18:56:01.601,-0.66919,0.46802,-0.54150;
18:56:01.611,-0.66504,0.46021,-0.55762;
18:56:01.621,-0.65894,0.44360,-0.57715;
18:56:01.631,-0.64087,0.43799,-0.60278;
18:56:01.641,-0.61108,0.44702,-0.63647;
18:56:01.651,-0.58228,0.44751,-0.68896;
18:56:01.661,-0.55762,0.43530,-0.75757;
18:56:01.671,-0.53174,0.43506,-0.81201;
18:56:01.681,-0.49854,0.45068,-0.84619;
18:56:01.691,-0.44238,0.46704,-0.75562;
18:56:01.701,-0.47461,0.44849,-0.72583;
18:56:01.711,-0.51685,0.41431,-0.79932;
18:56:01.721,-0.50635,0.44556,-0.78931;
18:56:01.731,-0.50537,0.48364,-0.78833;
18:56:01.741,-0.51587,0.49561,-0.83301;
18:56:01.751,-0.49683,0.51221,-0.80005;
18:56:01.761,-0.48486,0.49121,-0.76221;
18:56:01.771,-0.49976,0.44727,-0.76929;
18:56:01.781,-0.50586,0.42773,-0.78247;
18:56:01.791,-0.51367,0.43164,-0.76978;
18:56:01.801,-0.53369,0.44019,-0.75049;
18:56:01.811,-0.54736,0.45850,-0.74805;
18:56:01.821,-0.56689,0.49609,-0.69385;
18:56:01.831,-0.59131,0.46948,-0.67236;
18:56:01.841,-0.60718,0.44360,-0.66040;
18:56:01.851,-0.64355,0.42578,-0.59424;
18:56:01.861,-0.64673,0.46069,-0.58472;
18:56:01.871,-0.58325,0.48389,-0.62671;
18:56:01.881,-0.55811,0.47290,-0.63232;
18:56:01.891,-0.56421,0.45972,-0.64575;
18:56:01.901,-0.57104,0.44653,-0.64160;
18:56:01.911,-0.57593,0.43872,-0.62769;
18:56:01.921,-0.57275,0.45361,-0.62134;
18:56:01.931,-0.57471,0.46216,-0.62573;
18:56:01.941,-0.57935,0.44629,-0.63257;
18:56:01.951,-0.57764,0.42651,-0.64746;
18:56:01.961,-0.56152,0.41724,-0.66577;
18:56:01.971,-0.55176,0.42798,-0.67358;
18:56:01.981,-0.53955,0.44385,-0.68140;
18:56:01.991,-0.52637,0.45386,-0.71509;
18:56:02.001,-0.52661,0.44629,-0.77271;
18:56:02.011,-0.53882,0.40991,-0.83423;
18:56:02.021,-0.54590,0.38086,-0.88037;
18:56:02.031,-0.53345,0.37769,-0.89014;
18:56:02.041,-0.52075,0.39502,-0.87207;
18:56:02.051,-0.50708,0.42334,-0.84692;
18:56:02.061,-0.50171,0.45044,-0.81128;
18:56:02.071,-0.50708,0.46436,-0.76929;
18:56:02.081,-0.51660,0.44043,-0.73682;
18:56:02.091,-0.53174,0.39575,-0.73193;
18:56:02.101,-0.55396,0.36719,-0.74585;
18:56:02.111,-0.57227,0.36328,-0.76538;
18:56:02.121,-0.57349,0.38257,-0.78467;
18:56:02.131,-0.56250,0.41138,-0.78931;
18:56:02.141,-0.54980,0.43579,-0.77051;
18:56:02.151,-0.53149,0.44775,-0.74512;
18:56:02.161,-0.51855,0.45996,-0.72900;
18:56:02.171,-0.52637,0.46313,-0.73486;
18:56:02.181,-0.54297,0.45654,-0.79004;
18:56:02.191,-0.54639,0.43652,-0.82349;
18:56:02.201,-0.55298,0.38306,-0.73682;
18:56:02.211,-0.54834,0.39893,-0.68579;
18:56:02.221,-0.55273,0.40918,-0.63989;
18:56:02.231,-0.56592,0.41016,-0.62524;
18:56:02.241,-0.57056,0.42261,-0.64795;
18:56:02.251,-0.55884,0.44092,-0.67554;
18:56:02.261,-0.54980,0.44141,-0.70117;
18:56:02.271,-0.55005,0.42261,-0.71362;
18:56:02.281,-0.54810,0.39258,-0.72144;
18:56:02.291,-0.55054,0.38184,-0.72412;
18:56:02.301,-0.54883,0.40234,-0.72900;
18:56:02.311,-0.55273,0.41528,-0.73096;
18:56:02.321,-0.55835,0.41406,-0.75244;
18:56:02.331,-0.55005,0.40942,-0.78955;
18:56:02.341,-0.53833,0.39795,-0.79956;
18:56:02.351,-0.53491,0.39233,-0.78613;
18:56:02.361,-0.53394,0.40161,-0.75269;
18:56:02.371,-0.53979,0.42407,-0.72534;
18:56:02.381,-0.55078,0.43140,-0.71558;
18:56:02.391,-0.56201,0.42041,-0.71655;
18:56:02.401,-0.56519,0.40942,-0.72290;
18:56:02.411,-0.56348,0.40430,-0.72241;
18:56:02.421,-0.56421,0.40771,-0.71533;
18:56:02.431,-0.55615,0.42163,-0.70703;
18:56:02.441,-0.54980,0.43628,-0.69800;
18:56:02.451,-0.55615,0.43213,-0.69043;
18:56:02.461,-0.56348,0.42432,-0.69604;
18:56:02.471,-0.56860,0.41992,-0.69946;
18:56:02.481,-0.57544,0.42090,-0.69800;
18:56:02.491,-0.57227,0.42505,-0.69434;
18:56:02.501,-0.57104,0.42480,-0.69092;
18:56:02.511,-0.57080,0.42261,-0.68896;
18:56:02.521,-0.56567,0.42310,-0.68896;
18:56:02.531,-0.56250,0.42847,-0.68799;
18:56:02.541,-0.56274,0.43701,-0.68750;
18:56:02.551,-0.56470,0.43994,-0.69189;
18:56:02.561,-0.56812,0.43237,-0.70410;
18:56:02.571,-0.56372,0.42017,-0.71265;
18:56:02.581,-0.55542,0.41919,-0.72070;
18:56:02.591,-0.55225,0.42798,-0.72778;
18:56:02.601,-0.54858,0.42700,-0.72363;
18:56:02.611,-0.55029,0.43091,-0.72705;
18:56:02.621,-0.55200,0.42896,-0.73071;
18:56:02.631,-0.55591,0.41821,-0.73145;
18:56:02.641,-0.55908,0.41357,-0.73438;
18:56:02.651,-0.55737,0.41479,-0.73315;
18:56:02.661,-0.55713,0.42188,-0.72583;
18:56:02.671,-0.55615,0.42700,-0.71875;
18:56:02.681,-0.55566,0.42944,-0.71509;
18:56:02.691,-0.55981,0.42554,-0.71655;
18:56:02.701,-0.55884,0.42822,-0.72046;
18:56:02.711,-0.55688,0.44067,-0.74561;
18:56:02.721,-0.54980,0.43384,-0.73486;
18:56:02.731,-0.56372,0.45288,-0.76489;
18:56:02.741,-0.54565,0.42578,-0.73608;
18:56:02.751,-0.53931,0.41211,-0.68140;
18:56:02.761,-0.55469,0.42529,-0.68433;
18:56:02.771,-0.56274,0.43164,-0.70386;
18:56:02.781,-0.56396,0.42554,-0.72290;
18:56:02.791,-0.56226,0.40967,-0.73169;
18:56:02.801,-0.55518,0.40063,-0.72485;
18:56:02.811,-0.54468,0.40747,-0.71729;
18:56:02.821,-0.54639,0.42212,-0.71924;
18:56:02.831,-0.55518,0.43628,-0.74463;
18:56:02.841,-0.55615,0.45068,-0.75098;
18:56:02.851,-0.53882,0.44434,-0.73145;
18:56:02.861,-0.52490,0.42480,-0.71021;
18:56:02.871,-0.52661,0.41577,-0.67725;
18:56:02.881,-0.54028,0.40771,-0.65991;
18:56:02.891,-0.56226,0.41235,-0.65771;
18:56:02.901,-0.57837,0.42603,-0.67139;
18:56:02.911,-0.57910,0.43652,-0.69312;
18:56:02.921,-0.57056,0.43726,-0.70264;
18:56:02.931,-0.55884,0.43481,-0.70630;
18:56:02.941,-0.54663,0.43799,-0.71191;
18:56:02.951,-0.53687,0.44409,-0.72290;
18:56:02.961,-0.52856,0.44971,-0.72632;
18:56:02.971,-0.52271,0.44702,-0.72852;
18:56:02.981,-0.51880,0.44141,-0.73486;
18:56:02.991,-0.51855,0.43433,-0.73120;
18:56:03.001,-0.52661,0.43384,-0.71948;
18:56:03.011,-0.53687,0.43604,-0.71606;
18:56:03.021,-0.54688,0.43970,-0.71899;
18:56:03.031,-0.55737,0.45264,-0.72485;
18:56:03.041,-0.55396,0.45117,-0.71851;
18:56:03.051,-0.54883,0.43750,-0.70825;
18:56:03.061,-0.54590,0.42822,-0.70776;
18:56:03.071,-0.54395,0.43164,-0.70508;
18:56:03.081,-0.54932,0.43530,-0.69897;
18:56:03.091,-0.54688,0.43140,-0.69604;
18:56:03.101,-0.54126,0.44067,-0.70044;
18:56:03.111,-0.54077,0.45654,-0.71265;
18:56:03.121,-0.54932,0.46167,-0.74097;
18:56:03.131,-0.55469,0.44873,-0.77979;
18:56:03.141,-0.54077,0.43286,-0.79150;
18:56:03.151,-0.52466,0.42529,-0.76587;
18:56:03.161,-0.51563,0.42383,-0.73511;
18:56:03.171,-0.51685,0.42944,-0.71582;
18:56:03.181,-0.52319,0.44165,-0.71240;
18:56:03.191,-0.53149,0.44946,-0.71826;
18:56:03.201,-0.53711,0.44653,-0.72681;
18:56:03.211,-0.53174,0.43237,-0.73193;
18:56:03.221,-0.53125,0.41553,-0.72925;
18:56:03.231,-0.53735,0.41089,-0.71606;
18:56:03.241,-0.54346,0.41650,-0.69971;
18:56:03.251,-0.55298,0.42822,-0.68701;
18:56:03.261,-0.56323,0.44019,-0.68188;
18:56:03.271,-0.57056,0.45581,-0.68628;
18:56:03.281,-0.57495,0.46265,-0.70410;
18:56:03.291,-0.57397,0.45801,-0.71606;
18:56:03.301,-0.56689,0.46191,-0.73047;
18:56:03.311,-0.55566,0.46558,-0.73071;
18:56:03.321,-0.54224,0.45996,-0.72095;
18:56:03.331,-0.53149,0.46045,-0.71509;
18:56:03.341,-0.52515,0.47607,-0.70459;
18:56:03.351,-0.52759,0.48608,-0.69287;
18:56:03.361,-0.53687,0.48535,-0.68140;
18:56:03.371,-0.54370,0.47778,-0.66919;
18:56:03.381,-0.55737,0.46729,-0.66431;
18:56:03.391,-0.56567,0.46655,-0.67627;
18:56:03.401,-0.57275,0.47534,-0.69653;
18:56:03.411,-0.57642,0.48389,-0.71460;
18:56:03.421,-0.56885,0.48657,-0.73633;
18:56:03.431,-0.55469,0.48511,-0.76489;
18:56:03.441,-0.53467,0.47144,-0.76709;
18:56:03.451,-0.52490,0.44922,-0.73608;
18:56:03.461,-0.51953,0.43384,-0.70215;
18:56:03.471,-0.52417,0.43823,-0.67065;
18:56:03.481,-0.53906,0.46338,-0.66089;
18:56:03.491,-0.55884,0.48267,-0.66211;
18:56:03.501,-0.56934,0.48779,-0.66504;
18:56:03.511,-0.56982,0.48657,-0.66748;
18:56:03.521,-0.57178,0.47754,-0.66577;
18:56:03.531,-0.57373,0.47095,-0.66553;
18:56:03.541,-0.57520,0.47412,-0.65381;
18:56:03.551,-0.57690,0.47729,-0.64404;
18:56:03.561,-0.58081,0.47900,-0.65308;
18:56:03.571,-0.58203,0.48560,-0.67480;
18:56:03.581,-0.57544,0.48096,-0.69873;
18:56:03.591,-0.54980,0.45215,-0.69263;
18:56:03.601,-0.52417,0.50732,-0.77710;
18:56:03.611,-0.65771,0.47729,-0.61987;
18:56:03.621,-0.56299,0.58057,-0.61597;
18:56:03.631,-0.48975,0.66821,-0.64233;
18:56:03.641,-0.61597,0.23975,-0.58813;
18:56:03.651,-0.49707,0.38379,-0.60181;
18:56:03.661,-0.57202,0.35571,-0.63159;
18:56:03.671,-0.59692,0.41211,-0.68262;
18:56:03.681,-0.57739,0.44458,-0.66821;
18:56:03.691,-0.64917,0.53662,-0.70459;
18:56:03.701,-0.56152,0.51807,-0.72656;
18:56:03.711,-0.54346,0.52881,-0.71899;
18:56:03.721,-0.53247,0.52979,-0.71509;
18:56:03.731,-0.53345,0.47900,-0.71704;
18:56:03.741,-0.53247,0.44629,-0.71216;
18:56:03.751,-0.54736,0.45117,-0.71021;
18:56:03.761,-0.55811,0.46313,-0.69971;
18:56:03.771,-0.56592,0.44312,-0.69800;
18:56:03.781,-0.54736,0.42944,-0.70239;
18:56:03.791,-0.53174,0.44067,-0.69653;
18:56:03.801,-0.53638,0.46411,-0.69067;
18:56:03.811,-0.55273,0.47168,-0.70215;
18:56:03.821,-0.55542,0.43506,-0.70142;
18:56:03.831,-0.55176,0.40381,-0.69263;
18:56:03.841,-0.54688,0.36963,-0.70264;
18:56:03.851,-0.53979,0.35034,-0.71094;
18:56:03.861,-0.51758,0.37793,-0.70874;
18:56:03.871,-0.51514,0.41382,-0.71167;
18:56:03.881,-0.53003,0.43994,-0.70850;
18:56:03.891,-0.54443,0.44287,-0.72046;
18:56:03.901,-0.55591,0.43115,-0.73047;
18:56:03.911,-0.53540,0.41528,-0.72070;
18:56:03.921,-0.54468,0.39819,-0.72046;
18:56:03.931,-0.55273,0.40796,-0.72437;
18:56:03.941,-0.55151,0.44434,-0.72046;
18:56:03.951,-0.55103,0.44971,-0.71533;
18:56:03.961,-0.54517,0.42627,-0.70923;
18:56:03.971,-0.55054,0.42725,-0.69873;
18:56:03.981,-0.56348,0.42896,-0.69409;
18:56:03.991,-0.57129,0.41504,-0.69995;
18:56:04.001,-0.57300,0.41479,-0.70581;
18:56:04.011,-0.57129,0.40991,-0.71265;
18:56:04.021,-0.56445,0.40527,-0.71265;
18:56:04.031,-0.55933,0.41064,-0.71045;
18:56:04.041,-0.55884,0.42358,-0.71680;
18:56:04.051,-0.55225,0.42139,-0.71484;
18:56:04.061,-0.54224,0.39624,-0.70972;
18:56:04.071,-0.53198,0.38330,-0.71069;
18:56:04.081,-0.51685,0.38843,-0.71997;
18:56:04.091,-0.50610,0.41235,-0.72266;
18:56:04.101,-0.50317,0.44043,-0.71997;
18:56:04.111,-0.51660,0.45776,-0.71704;
18:56:04.121,-0.52344,0.46802,-0.71680;
18:56:04.131,-0.53003,0.45117,-0.71655;
18:56:04.141,-0.55469,0.41992,-0.71582;
18:56:04.151,-0.54224,0.43066,-0.72363;
18:56:04.161,-0.54004,0.42822,-0.72095;
18:56:04.171,-0.55640,0.43896,-0.71069;
18:56:04.181,-0.56372,0.46997,-0.70337;
18:56:04.191,-0.57471,0.46436,-0.68164;
18:56:04.201,-0.58789,0.47754,-0.67529;
18:56:04.211,-0.60913,0.48633,-0.68555;
18:56:04.221,-0.59106,0.46948,-0.69629;
18:56:04.231,-0.58301,0.46924,-0.69824;
18:56:04.241,-0.58545,0.47119,-0.68481;
18:56:04.251,-0.55640,0.48730,-0.67944;
18:56:04.261,-0.53784,0.49756,-0.67480;
18:56:04.271,-0.55322,0.49951,-0.66626;
18:56:04.281,-0.56567,0.50806,-0.65991;
18:56:04.291,-0.54907,0.53052,-0.64551;
18:56:04.301,-0.54370,0.51733,-0.64844;
18:56:04.311,-0.54468,0.51904,-0.65869;
18:56:04.321,-0.54175,0.53638,-0.66406;
18:56:04.331,-0.54883,0.53491,-0.67334;
18:56:04.341,-0.54541,0.53101,-0.68140;
18:56:04.351,-0.53662,0.50171,-0.69434;
18:56:04.361,-0.53418,0.50366,-0.69702;
18:56:04.371,-0.52979,0.48926,-0.69995;
18:56:04.381,-0.52905,0.47681,-0.69751;
18:56:04.391,-0.53784,0.47510,-0.68921;
18:56:04.401,-0.54736,0.46753,-0.68311;
18:56:04.411,-0.55664,0.47681,-0.66772;
18:56:04.421,-0.56958,0.49048,-0.64844;
18:56:04.431,-0.58911,0.49072,-0.63403;
18:56:04.441,-0.57471,0.47534,-0.67749;
18:56:04.451,-0.57080,0.51318,-0.69653;
18:56:04.461,-0.53296,0.49902,-0.70581;
18:56:04.471,-0.52466,0.47729,-0.70435;
18:56:04.481,-0.52661,0.48438,-0.67798;
18:56:04.491,-0.55249,0.50269,-0.63501;
18:56:04.501,-0.57983,0.49341,-0.62817;
18:56:04.511,-0.60132,0.48730,-0.62646;
18:56:04.521,-0.60889,0.49805,-0.62280;
18:56:04.531,-0.61328,0.50073,-0.64160;
18:56:04.541,-0.60840,0.49609,-0.65601;
18:56:04.551,-0.58301,0.49585,-0.65625;
18:56:04.561,-0.56250,0.50073,-0.65234;
18:56:04.571,-0.56006,0.51147,-0.65503;
18:56:04.581,-0.55200,0.52051,-0.65991;
18:56:04.591,-0.54761,0.51074,-0.66309;
18:56:04.601,-0.54492,0.50269,-0.66919;
18:56:04.611,-0.53735,0.50610,-0.66602;
18:56:04.621,-0.54956,0.50610,-0.66260;
18:56:04.631,-0.56274,0.50439,-0.66455;
18:56:04.641,-0.56665,0.49512,-0.67334;
18:56:04.651,-0.56104,0.48779,-0.67627;
18:56:04.661,-0.54980,0.49390,-0.67700;
18:56:04.671,-0.53857,0.50220,-0.67285;
18:56:04.681,-0.54590,0.51074,-0.66382;
18:56:04.691,-0.55542,0.51025,-0.66626;
18:56:04.701,-0.56201,0.50415,-0.67285;
18:56:04.711,-0.56372,0.50415,-0.67358;
18:56:04.721,-0.55713,0.51172,-0.66113;
18:56:04.731,-0.55884,0.52344,-0.64282;
18:56:04.741,-0.56812,0.52637,-0.61865;
18:56:04.751,-0.58374,0.51953,-0.60596;
18:56:04.761,-0.59351,0.51050,-0.60645;
18:56:04.771,-0.59985,0.51147,-0.60449;
18:56:04.781,-0.59961,0.52271,-0.59985;
18:56:04.791,-0.60400,0.53833,-0.60815;
18:56:04.801,-0.60425,0.54614,-0.61621;
18:56:04.811,-0.59692,0.53809,-0.61182;
18:56:04.821,-0.59473,0.52148,-0.60669;
18:56:04.831,-0.59253,0.51880,-0.61060;
18:56:04.841,-0.58643,0.52856,-0.61060;
18:56:04.851,-0.58984,0.54004,-0.59912;
18:56:04.861,-0.59375,0.53979,-0.59229;
18:56:04.871,-0.59668,0.53320,-0.58716;
18:56:04.881,-0.60254,0.53320,-0.58740;
18:56:04.891,-0.60522,0.53857,-0.58252;
18:56:04.901,-0.60571,0.54541,-0.58154;
18:56:04.911,-0.60522,0.54785,-0.58301;
18:56:04.921,-0.60669,0.54541,-0.58545;
18:56:04.931,-0.60254,0.54492,-0.59229;
18:56:04.941,-0.59277,0.54834,-0.59937;
18:56:04.951,-0.58423,0.55664,-0.60352;
18:56:04.961,-0.58325,0.55322,-0.59448;
18:56:04.971,-0.58276,0.54224,-0.58594;
18:56:04.981,-0.58643,0.53589,-0.58887;
18:56:04.991,-0.59155,0.53076,-0.58765;
18:56:05.001,-0.58911,0.52808,-0.58472;
18:56:05.011,-0.59277,0.53833,-0.57690;
18:56:05.021,-0.59839,0.54956,-0.57593;
18:56:05.031,-0.60205,0.55005,-0.58252;
18:56:05.041,-0.60254,0.55347,-0.58691;
18:56:05.051,-0.59985,0.55298,-0.59302;
18:56:05.061,-0.59790,0.54858,-0.59741;
18:56:05.071,-0.59668,0.54346,-0.60522;
18:56:05.081,-0.59351,0.54224,-0.61157;
18:56:05.091,-0.58936,0.54834,-0.61133;
18:56:05.101,-0.58032,0.55225,-0.59937;
18:56:05.111,-0.57959,0.55151,-0.59692;
18:56:05.121,-0.58374,0.54785,-0.60132;
18:56:05.131,-0.58179,0.53809,-0.60107;
18:56:05.141,-0.58154,0.53540,-0.60913;
18:56:05.151,-0.58081,0.54663,-0.61768;
18:56:05.161,-0.57837,0.54907,-0.61938;
18:56:05.171,-0.57495,0.54785,-0.61377;
18:56:05.181,-0.59204,0.54126,-0.60205;
18:56:05.191,-0.58594,0.54248,-0.60059;
18:56:05.201,-0.58276,0.54517,-0.59863;
18:56:05.211,-0.58472,0.54858,-0.58984;
18:56:05.221,-0.58862,0.54834,-0.57886;
18:56:05.231,-0.59497,0.54639,-0.57861;
18:56:05.241,-0.60254,0.54639,-0.59155;
18:56:05.251,-0.60254,0.53955,-0.60083;
18:56:05.261,-0.59717,0.54370,-0.61719;
18:56:05.271,-0.58862,0.54639,-0.59912;
18:56:05.281,-0.59082,0.54077,-0.57813;
18:56:05.291,-0.60278,0.54224,-0.58252;
18:56:05.301,-0.59375,0.53369,-0.58838;
18:56:05.311,-0.59912,0.55054,-0.58984;
18:56:05.321,-0.59814,0.54810,-0.59424;
18:56:05.331,-0.59888,0.54858,-0.59741;
18:56:05.341,-0.59546,0.54956,-0.60229;
18:56:05.351,-0.59106,0.55200,-0.60352;
18:56:05.361,-0.58984,0.55200,-0.59912;
18:56:05.371,-0.58691,0.54883,-0.59668;
18:56:05.381,-0.58789,0.55078,-0.59131;
18:56:05.391,-0.58740,0.55127,-0.58398;
18:56:05.401,-0.58911,0.54980,-0.58105;
18:56:05.411,-0.58862,0.54736,-0.58057;
18:56:05.421,-0.58936,0.54590,-0.58179;
18:56:05.431,-0.58838,0.54468,-0.58765;
18:56:05.441,-0.58691,0.54639,-0.59326;
18:56:05.451,-0.58667,0.54883,-0.59497;
18:56:05.461,-0.58569,0.55151,-0.60229;
18:56:05.471,-0.58643,0.55884,-0.61011;
18:56:05.481,-0.58301,0.55884,-0.60522;
18:56:05.491,-0.58276,0.55078,-0.60303;
18:56:05.501,-0.58521,0.55127,-0.60156;
18:56:05.511,-0.58643,0.54883,-0.59888;
18:56:05.521,-0.59106,0.54175,-0.59839;
18:56:05.531,-0.59277,0.53711,-0.59497;
18:56:05.541,-0.59473,0.54102,-0.59058;
18:56:05.551,-0.59448,0.54565,-0.58325;
18:56:05.561,-0.59521,0.54858,-0.56958;
18:56:05.571,-0.60010,0.55029,-0.56348;
18:56:05.581,-0.60254,0.54517,-0.57886;
18:56:05.591,-0.60059,0.55249,-0.59326;
18:56:05.601,-0.59399,0.55493,-0.60156;
18:56:05.611,-0.58716,0.54956,-0.60962;
18:56:05.621,-0.58374,0.55103,-0.61694;
18:56:05.631,-0.58350,0.54858,-0.61426;
18:56:05.641,-0.58374,0.54395,-0.60352;
18:56:05.651,-0.58301,0.54297,-0.59497;
18:56:05.661,-0.58838,0.54517,-0.59155;
18:56:05.671,-0.59253,0.54736,-0.59009;
18:56:05.681,-0.59082,0.54224,-0.58862;
18:56:05.691,-0.59131,0.54321,-0.58594;
18:56:05.701,-0.59253,0.54761,-0.58496;
18:56:05.711,-0.59033,0.55322,-0.58887;
18:56:05.721,-0.58667,0.56079,-0.59326;
18:56:05.731,-0.58789,0.55469,-0.59424;
18:56:05.741,-0.59375,0.55200,-0.59937;
18:56:05.751,-0.59180,0.54419,-0.61401;
18:56:05.761,-0.58301,0.53467,-0.61963;
18:56:05.771,-0.57910,0.54419,-0.61572;
18:56:05.781,-0.57959,0.55127,-0.60278;
18:56:05.791,-0.57788,0.54907,-0.59253;
18:56:05.801,-0.58374,0.54614,-0.58667;
18:56:05.811,-0.59033,0.54272,-0.58765;
18:56:05.821,-0.58887,0.54224,-0.59351;
18:56:05.831,-0.59033,0.54663,-0.59790;
18:56:05.841,-0.59155,0.54785,-0.60327;
18:56:05.851,-0.58911,0.54248,-0.60254;
18:56:05.861,-0.59277,0.54077,-0.60278;
18:56:05.871,-0.59351,0.54883,-0.59888;
18:56:05.881,-0.59131,0.55322,-0.59082;
18:56:05.891,-0.59253,0.55054,-0.58569;
18:56:05.901,-0.59302,0.54858,-0.58472;
18:56:05.911,-0.59399,0.54590,-0.59155;
18:56:05.921,-0.59131,0.54224,-0.60254;
18:56:05.931,-0.58594,0.54395,-0.61011;
18:56:05.941,-0.58203,0.54761,-0.60645;
18:56:05.951,-0.58496,0.54712,-0.59912;
18:56:05.961,-0.58838,0.54663,-0.59253;
18:56:05.971,-0.59326,0.54688,-0.59180;
18:56:05.981,-0.59448,0.54932,-0.59229;
18:56:05.991,-0.59473,0.55103,-0.59424;
18:56:06.001,-0.59302,0.54688,-0.59448;
18:56:06.011,-0.59082,0.54321,-0.59033;
18:56:06.021,-0.58911,0.54834,-0.59277;
18:56:06.031,-0.59229,0.55518,-0.59204;
18:56:06.041,-0.59717,0.55078,-0.58936;
18:56:06.051,-0.59424,0.54346,-0.58691;
18:56:06.061,-0.59399,0.55273,-0.58423;
18:56:06.071,-0.59521,0.56445,-0.58154;
18:56:06.081,-0.59106,0.55762,-0.58008;
18:56:06.091,-0.58765,0.54907,-0.58447;
18:56:06.101,-0.58716,0.54199,-0.58765;
18:56:06.111,-0.58594,0.54077,-0.59961;
18:56:06.121,-0.58325,0.54688,-0.60693;
18:56:06.131,-0.58130,0.54663,-0.60059;
18:56:06.141,-0.58130,0.54272,-0.59937;
18:56:06.151,-0.58447,0.54126,-0.59863;
18:56:06.161,-0.58765,0.53955,-0.59106;
18:56:06.171,-0.59766,0.54883,-0.58838;
18:56:06.181,-0.60034,0.54395,-0.59302;
18:56:06.191,-0.60010,0.55469,-0.58618;
18:56:06.201,-0.59155,0.54858,-0.60376;
18:56:06.211,-0.58936,0.54492,-0.60986;
18:56:06.221,-0.58496,0.53955,-0.60815;
18:56:06.231,-0.58276,0.53833,-0.60083;
18:56:06.241,-0.58398,0.53833,-0.59985;
18:56:06.251,-0.58618,0.54346,-0.59937;
18:56:06.261,-0.58789,0.54980,-0.59521;
18:56:06.271,-0.58862,0.54639,-0.59131;
18:56:06.281,-0.59155,0.54639,-0.58569;
18:56:06.291,-0.59302,0.54614,-0.58154;
18:56:06.301,-0.59326,0.54419,-0.58789;
18:56:06.311,-0.59131,0.54297,-0.58740;
18:56:06.321,-0.59204,0.54541,-0.58740;
18:56:06.331,-0.59399,0.55054,-0.59619;
18:56:06.341,-0.58936,0.55469,-0.60229;
18:56:06.351,-0.58887,0.55151,-0.60425;
18:56:06.361,-0.58691,0.54810,-0.60327;
18:56:06.371,-0.58521,0.54443,-0.60303;
18:56:06.381,-0.58691,0.54785,-0.60034;
18:56:06.391,-0.58862,0.54785,-0.59570;
18:56:06.401,-0.59009,0.54150,-0.59424;
18:56:06.411,-0.59082,0.54492,-0.59253;
18:56:06.421,-0.58691,0.54810,-0.59204;
18:56:06.431,-0.58740,0.54980,-0.59106;
18:56:06.441,-0.58765,0.54956,-0.58936;
18:56:06.451,-0.59033,0.54858,-0.58789;
18:56:06.461,-0.59448,0.54810,-0.58643;
18:56:06.471,-0.59326,0.55151,-0.59595;
18:56:06.481,-0.58911,0.55273,-0.60791;
18:56:06.491,-0.58423,0.54858,-0.61230;
18:56:06.501,-0.58325,0.54517,-0.61035;
18:56:06.511,-0.58203,0.54346,-0.60840;
18:56:06.521,-0.58203,0.54639,-0.60278;
18:56:06.531,-0.58228,0.54419,-0.59692;
18:56:06.541,-0.58643,0.54590,-0.59058;
18:56:06.551,-0.58984,0.54712,-0.58496;
18:56:06.561,-0.59448,0.54370,-0.58252;
18:56:06.571,-0.60059,0.54639,-0.58472;
18:56:06.581,-0.59863,0.54932,-0.58813;
18:56:06.591,-0.59375,0.55273,-0.58936;
18:56:06.601,-0.59180,0.55493,-0.59912;
18:56:06.611,-0.58936,0.55542,-0.60498;
18:56:06.621,-0.58716,0.54785,-0.60132;
18:56:06.631,-0.58569,0.54199,-0.60400;
18:56:06.641,-0.59009,0.54443,-0.60229;
18:56:06.651,-0.58594,0.54517,-0.60254;
18:56:06.661,-0.58545,0.54419,-0.59814;
18:56:06.671,-0.58887,0.54517,-0.58789;
18:56:06.681,-0.59229,0.54663,-0.58472;
18:56:06.691,-0.59619,0.54395,-0.57861;
18:56:06.701,-0.59912,0.54468,-0.57642;
18:56:06.711,-0.59814,0.54810,-0.57568;
18:56:06.721,-0.59570,0.54810,-0.58228;
18:56:06.731,-0.59692,0.54980,-0.59668;
18:56:06.741,-0.59131,0.55029,-0.60474;
18:56:06.751,-0.58716,0.54639,-0.60962;
18:56:06.761,-0.58423,0.54541,-0.60986;
18:56:06.771,-0.58472,0.54810,-0.60303;
18:56:06.781,-0.58984,0.54907,-0.59399;
18:56:06.791,-0.59277,0.54932,-0.58789;
18:56:06.801,-0.59497,0.54810,-0.58789;
18:56:06.811,-0.59717,0.54590,-0.58545;
18:56:06.821,-0.59570,0.54590,-0.58179;
18:56:06.831,-0.59351,0.55029,-0.58057;
18:56:06.841,-0.59351,0.55347,-0.58325;
18:56:06.851,-0.59277,0.55151,-0.59375;
18:56:06.861,-0.59106,0.55249,-0.60107;
18:56:06.871,-0.58569,0.54883,-0.60571;
18:56:06.881,-0.58228,0.54248,-0.61230;
18:56:06.891,-0.58569,0.54565,-0.61377;
18:56:06.901,-0.58350,0.54492,-0.61646;
18:56:06.911,-0.58203,0.54590,-0.60547;
18:56:06.921,-0.58398,0.54639,-0.59229;
18:56:06.931,-0.59058,0.54639,-0.58203;
18:56:06.941,-0.59717,0.54321,-0.57422;
18:56:06.951,-0.59692,0.54297,-0.57861;
18:56:06.961,-0.59741,0.55005,-0.58105;
18:56:06.971,-0.59717,0.55591,-0.57910;
18:56:06.981,-0.59473,0.55444,-0.58032;
18:56:06.991,-0.59595,0.55005,-0.58984;
18:56:07.001,-0.59399,0.55225,-0.60205;
18:56:07.011,-0.59009,0.55249,-0.60742;
18:56:07.021,-0.58423,0.55420,-0.60767;
18:56:07.031,-0.58130,0.55469,-0.60229;
18:56:07.041,-0.58423,0.55029,-0.59741;
18:56:07.051,-0.58789,0.54785,-0.59302;
18:56:07.061,-0.59399,0.54321,-0.57300;
18:56:07.071,-0.60303,0.54688,-0.57397;
18:56:07.081,-0.59888,0.55273,-0.59033;
18:56:07.091,-0.58936,0.55078,-0.59766;
18:56:07.101,-0.58813,0.54980,-0.60083;
18:56:07.111,-0.58813,0.54932,-0.59912;
18:56:07.121,-0.58594,0.54565,-0.59424;
18:56:07.131,-0.58618,0.54614,-0.59033;
18:56:07.141,-0.59009,0.55005,-0.58813;
18:56:07.151,-0.59277,0.54834,-0.58643;
18:56:07.161,-0.59204,0.54639,-0.58838;
18:56:07.171,-0.58789,0.54785,-0.58936;
18:56:07.181,-0.58594,0.55640,-0.59131;
18:56:07.191,-0.58447,0.55835,-0.59106;
18:56:07.201,-0.58179,0.55371,-0.59253;
18:56:07.211,-0.58228,0.55127,-0.59546;
18:56:07.221,-0.58350,0.54712,-0.60425;
18:56:07.231,-0.58252,0.54956,-0.60767;
18:56:07.241,-0.58105,0.54907,-0.60107;
18:56:07.251,-0.58130,0.55054,-0.59961;
18:56:07.261,-0.58276,0.55786,-0.59497;
18:56:07.271,-0.58350,0.55298,-0.58618;
18:56:07.281,-0.58643,0.55103,-0.58203;
18:56:07.291,-0.59399,0.54834,-0.58398;
18:56:07.301,-0.59473,0.54272,-0.58960;
18:56:07.311,-0.59521,0.53760,-0.60205;
18:56:07.321,-0.59595,0.52710,-0.61597;
18:56:07.331,-0.59570,0.52832,-0.62891;
18:56:07.341,-0.58350,0.54004,-0.63672;
18:56:07.351,-0.57251,0.54517,-0.62231;
18:56:07.361,-0.57080,0.56030,-0.60181;
18:56:07.371,-0.57422,0.56055,-0.59839;
18:56:07.381,-0.57715,0.54321,-0.59985;
18:56:07.391,-0.57300,0.53418,-0.59375;
18:56:07.401,-0.57617,0.53369,-0.59546;
18:56:07.411,-0.58447,0.52466,-0.59692;
18:56:07.421,-0.59717,0.51392,-0.60400;
18:56:07.431,-0.60620,0.51831,-0.61279;
18:56:07.441,-0.60083,0.54541,-0.60034;
18:56:07.451,-0.60229,0.56055,-0.58423;
18:56:07.461,-0.60156,0.55200,-0.57861;
18:56:07.471,-0.58350,0.56445,-0.58325;
18:56:07.481,-0.57397,0.58789,-0.58423;
18:56:07.491,-0.57300,0.60571,-0.59253;
18:56:07.501,-0.57031,0.58838,-0.60693;
18:56:07.511,-0.56836,0.55371,-0.61743;
18:56:07.521,-0.57495,0.54736,-0.63574;
18:56:07.531,-0.57886,0.55396,-0.63330;
18:56:07.541,-0.56641,0.57324,-0.60815;
18:56:07.551,-0.56543,0.59448,-0.59717;
18:56:07.561,-0.56836,0.59668,-0.58765;
18:56:07.571,-0.56396,0.59009,-0.58350;
18:56:07.581,-0.57129,0.58325,-0.57788;
18:56:07.591,-0.58398,0.57153,-0.57446;
18:56:07.601,-0.59766,0.56201,-0.58179;
18:56:07.611,-0.60229,0.54590,-0.59155;
18:56:07.621,-0.60059,0.54004,-0.59302;
18:56:07.631,-0.60229,0.55737,-0.58228;
18:56:07.641,-0.60327,0.55811,-0.57178;
18:56:07.651,-0.60034,0.55957,-0.55200;
18:56:07.661,-0.60400,0.58032,-0.54150;
18:56:07.671,-0.62183,0.58154,-0.53979;
18:56:07.681,-0.62402,0.56616,-0.54468;
18:56:07.691,-0.61670,0.55347,-0.55469;
18:56:07.701,-0.60938,0.55127,-0.55005;
18:56:07.711,-0.59863,0.55542,-0.55420;
18:56:07.721,-0.59497,0.56763,-0.57178;
18:56:07.731,-0.59717,0.56567,-0.59106;
18:56:07.741,-0.59180,0.53589,-0.59985;
18:56:07.751,-0.58228,0.52246,-0.59863;
18:56:07.761,-0.58057,0.53711,-0.58447;
18:56:07.771,-0.58667,0.55737,-0.57568;
18:56:07.781,-0.59961,0.57080,-0.57349;
18:56:07.791,-0.61426,0.56812,-0.56006;
18:56:07.801,-0.62109,0.54688,-0.55518;
18:56:07.811,-0.61816,0.54395,-0.54883;
18:56:07.821,-0.62378,0.55566,-0.53467;
18:56:07.831,-0.62524,0.55029,-0.52490;
18:56:07.841,-0.62500,0.54663,-0.52808;
18:56:07.851,-0.62744,0.56250,-0.53931;
18:56:07.861,-0.61157,0.58276,-0.56372;
18:56:07.871,-0.60425,0.58398,-0.59229;
18:56:07.881,-0.59692,0.56763,-0.61108;
18:56:07.891,-0.57666,0.57080,-0.62305;
18:56:07.901,-0.56177,0.58496,-0.62598;
18:56:07.911,-0.54712,0.58911,-0.61987;
18:56:07.921,-0.54980,0.56714,-0.58691;
18:56:07.931,-0.56982,0.53857,-0.58862;
18:56:07.941,-0.58716,0.56152,-0.60303;
18:56:07.951,-0.57251,0.61646,-0.60205;
18:56:07.961,-0.58105,0.56641,-0.57373;
18:56:07.971,-0.59082,0.55664,-0.58276;
18:56:07.981,-0.60059,0.58643,-0.58301;
18:56:07.991,-0.60425,0.58740,-0.56934;
18:56:08.001,-0.60718,0.56934,-0.55054;
18:56:08.011,-0.60229,0.55762,-0.54004;
18:56:08.021,-0.59497,0.55640,-0.53320;
18:56:08.031,-0.59937,0.57593,-0.54395;
18:56:08.041,-0.60815,0.58545,-0.55103;
18:56:08.051,-0.61646,0.57104,-0.54492;
18:56:08.061,-0.62012,0.56787,-0.55029;
18:56:08.071,-0.61621,0.57520,-0.55859;
18:56:08.081,-0.60571,0.57910,-0.56982;
18:56:08.091,-0.59912,0.57080,-0.56885;
18:56:08.101,-0.59473,0.56274,-0.56055;
18:56:08.111,-0.58765,0.56372,-0.55518;
18:56:08.121,-0.59033,0.56616,-0.54810;
18:56:08.131,-0.59497,0.55615,-0.55298;
18:56:08.141,-0.59448,0.54736,-0.56250;
18:56:08.151,-0.59595,0.55322,-0.57056;
18:56:08.161,-0.60303,0.56494,-0.57739;
18:56:08.171,-0.60352,0.57837,-0.57788;
18:56:08.181,-0.59692,0.58936,-0.58057;
18:56:08.191,-0.59741,0.57666,-0.58276;
18:56:08.201,-0.59717,0.55566,-0.58008;
18:56:08.211,-0.59277,0.54956,-0.58032;
18:56:08.221,-0.59033,0.53955,-0.57861;
18:56:08.231,-0.59106,0.53589,-0.57788;
18:56:08.241,-0.58838,0.56543,-0.57690;
18:56:08.251,-0.58545,0.59473,-0.57666;
18:56:08.261,-0.59497,0.57642,-0.56128;
18:56:08.271,-0.59888,0.55273,-0.55444;
18:56:08.281,-0.59399,0.56079,-0.56396;
18:56:08.291,-0.59888,0.58276,-0.57544;
18:56:08.301,-0.60229,0.57690,-0.58618;
18:56:08.311,-0.59985,0.56104,-0.59644;
18:56:08.321,-0.59351,0.56104,-0.60278;
18:56:08.331,-0.58789,0.56689,-0.59448;
18:56:08.341,-0.58374,0.56641,-0.58667;
18:56:08.351,-0.57910,0.55518,-0.57642;
18:56:08.361,-0.58472,0.56128,-0.57080;
18:56:08.371,-0.59863,0.58008,-0.57202;
18:56:08.381,-0.61157,0.59131,-0.57983;
18:56:08.391,-0.60742,0.59106,-0.56689;
18:56:08.401,-0.60327,0.58447,-0.54272;
18:56:08.411,-0.61255,0.59399,-0.53296;
18:56:08.421,-0.61499,0.60522,-0.53638;
18:56:08.431,-0.61304,0.60791,-0.54028;
18:56:08.441,-0.61670,0.59937,-0.53931;
18:56:08.451,-0.62061,0.57349,-0.54126;
18:56:08.461,-0.60474,0.55957,-0.54248;
18:56:08.471,-0.58618,0.58496,-0.54224;
18:56:08.481,-0.58984,0.62158,-0.53418;
18:56:08.491,-0.58740,0.62744,-0.53149;
18:56:08.501,-0.57764,0.63403,-0.55176;
18:56:08.511,-0.58936,0.59741,-0.56250;
18:56:08.521,-0.59937,0.56177,-0.55737;
18:56:08.531,-0.56836,0.64551,-0.56763;
18:56:08.541,-0.57080,0.72168,-0.53369;
18:56:08.551,-0.57959,0.65967,-0.51587;
18:56:08.561,-0.60742,0.60620,-0.51172;
18:56:08.571,-0.62134,0.60303,-0.52515;
18:56:08.581,-0.62817,0.58276,-0.54395;
18:56:08.591,-0.61621,0.56006,-0.54858;
18:56:08.601,-0.60376,0.55981,-0.55542;
18:56:08.611,-0.58838,0.57983,-0.55737;
18:56:08.621,-0.56689,0.56934,-0.55591;
18:56:08.631,-0.55176,0.53540,-0.55371;
18:56:08.641,-0.54932,0.52783,-0.55396;
18:56:08.651,-0.55957,0.54175,-0.56494;
18:56:08.661,-0.56714,0.54443,-0.57520;
18:56:08.671,-0.57153,0.52344,-0.57642;
18:56:08.681,-0.57666,0.56030,-0.56763;
18:56:08.691,-0.58716,0.62842,-0.54834;
18:56:08.701,-0.61963,0.62183,-0.52954;
18:56:08.711,-0.63916,0.56421,-0.53027;
18:56:08.721,-0.64868,0.52490,-0.57251;
18:56:08.731,-0.66040,0.52563,-0.58179;
18:56:08.741,-0.63574,0.55591,-0.53247;
18:56:08.751,-0.64526,0.52515,-0.53320;
18:56:08.761,-0.66699,0.57520,-0.53809;
18:56:08.771,-0.63184,0.57471,-0.52051;
18:56:08.781,-0.62109,0.48877,-0.54297;
18:56:08.791,-0.62964,0.55249,-0.60156;
18:56:08.801,-0.59009,0.54639,-0.57642;
18:56:08.811,-0.58276,0.56128,-0.57764;
18:56:08.821,-0.59717,0.55005,-0.58276;
18:56:08.831,-0.60889,0.53809,-0.57104;
18:56:08.841,-0.60986,0.54663,-0.55762;
18:56:08.851,-0.61426,0.56152,-0.54077;
18:56:08.861,-0.62549,0.57764,-0.54321;
18:56:08.871,-0.62866,0.57300,-0.55957;
18:56:08.881,-0.62305,0.55615,-0.56934;
18:56:08.891,-0.61719,0.54858,-0.57983;
18:56:08.901,-0.61304,0.55591,-0.59082;
18:56:08.911,-0.60059,0.55176,-0.59253;
18:56:08.921,-0.58667,0.54736,-0.58936;
18:56:08.931,-0.57666,0.55542,-0.59009;
18:56:08.941,-0.57300,0.55908,-0.58716;
18:56:08.951,-0.57349,0.55933,-0.58594;
18:56:08.961,-0.57471,0.55420,-0.60522;
18:56:08.971,-0.57324,0.55249,-0.61987;
18:56:08.981,-0.56958,0.54883,-0.61621;
18:56:08.991,-0.57397,0.54492,-0.61304;
18:56:09.001,-0.58057,0.54688,-0.60620;
18:56:09.011,-0.58594,0.54443,-0.59692;
18:56:09.021,-0.60034,0.53906,-0.58813;
18:56:09.031,-0.61060,0.53613,-0.58691;
18:56:09.041,-0.61523,0.53516,-0.58667;
18:56:09.051,-0.60742,0.54004,-0.58081;
18:56:09.061,-0.59717,0.55615,-0.57764;
18:56:09.071,-0.59399,0.56982,-0.58569;
18:56:09.081,-0.58643,0.56641,-0.59961;
18:56:09.091,-0.58057,0.55737,-0.60938;
18:56:09.101,-0.57861,0.53979,-0.61963;
18:56:09.111,-0.58105,0.54932,-0.60962;
18:56:09.121,-0.58813,0.55762,-0.60059;
18:56:09.131,-0.59546,0.56006,-0.60425;
18:56:09.141,-0.59521,0.55371,-0.60083;
18:56:09.151,-0.59790,0.54053,-0.59399;
18:56:09.161,-0.60107,0.53174,-0.59619;
18:56:09.171,-0.59229,0.53516,-0.58960;
18:56:09.181,-0.59229,0.54077,-0.58203;
18:56:09.191,-0.59717,0.54248,-0.58325;
18:56:09.201,-0.59741,0.54077,-0.59644;
18:56:09.211,-0.59253,0.54150,-0.60547;
18:56:09.221,-0.58203,0.53662,-0.60840;
18:56:09.231,-0.57397,0.53516,-0.61621;
18:56:09.241,-0.56543,0.55566,-0.60767;
18:56:09.251,-0.56396,0.57495,-0.59277;
18:56:09.261,-0.58105,0.56372,-0.58838;
18:56:09.271,-0.59912,0.54077,-0.59106;
18:56:09.281,-0.60547,0.52588,-0.59131;
18:56:09.291,-0.60889,0.52832,-0.59424;
18:56:09.301,-0.60986,0.54614,-0.59399;
18:56:09.311,-0.60376,0.55518,-0.58862;
18:56:09.321,-0.59375,0.55029,-0.58398;
18:56:09.331,-0.58643,0.54980,-0.57935;
18:56:09.341,-0.58325,0.55811,-0.58740;
18:56:09.351,-0.58716,0.55347,-0.59888;
18:56:09.361,-0.58789,0.54663,-0.60742;
18:56:09.371,-0.58301,0.53857,-0.61938;
18:56:09.381,-0.57983,0.53638,-0.61621;
18:56:09.391,-0.57642,0.54565,-0.60693;
18:56:09.401,-0.57715,0.54590,-0.60400;
18:56:09.411,-0.57715,0.54517,-0.60156;
18:56:09.421,-0.57764,0.55029,-0.59814;
18:56:09.431,-0.58057,0.55054,-0.59448;
18:56:09.441,-0.58398,0.55029,-0.59521;
18:56:09.451,-0.58960,0.54785,-0.58887;
18:56:09.461,-0.59302,0.54785,-0.58911;
18:56:09.471,-0.59937,0.54980,-0.58716;
18:56:09.481,-0.60620,0.54761,-0.58228;
18:56:09.491,-0.60449,0.54639,-0.59106;
18:56:09.501,-0.60254,0.55444,-0.60107;
18:56:09.511,-0.59180,0.55884,-0.59570;
18:56:09.521,-0.58276,0.54907,-0.58960;
18:56:09.531,-0.58105,0.54663,-0.58716;
18:56:09.541,-0.58301,0.54688,-0.58789;
18:56:09.551,-0.58740,0.54810,-0.59009;
18:56:09.561,-0.58618,0.55469,-0.58936;
18:56:09.571,-0.58740,0.56055,-0.58301;
18:56:09.581,-0.60376,0.55225,-0.58813;
18:56:09.591,-0.60107,0.55444,-0.59033;
18:56:09.601,-0.58105,0.54126,-0.61279;
18:56:09.611,-0.57056,0.54565,-0.60962;
18:56:09.621,-0.57568,0.55469,-0.59912;
18:56:09.631,-0.58716,0.54932,-0.59277;
18:56:09.641,-0.60278,0.54053,-0.58911;
18:56:09.651,-0.60571,0.53662,-0.59399;
18:56:09.661,-0.60645,0.53589,-0.59961;
18:56:09.671,-0.60181,0.54297,-0.60107;
18:56:09.681,-0.59106,0.55322,-0.60352;
18:56:09.691,-0.58179,0.55981,-0.60889;
18:56:09.701,-0.57324,0.56079,-0.60889;
18:56:09.711,-0.57129,0.55493,-0.59937;
18:56:09.721,-0.57617,0.54761,-0.59229;
18:56:09.731,-0.58472,0.54395,-0.59277;
18:56:09.741,-0.59302,0.54468,-0.59399;
18:56:09.751,-0.60181,0.54443,-0.58716;
18:56:09.761,-0.60400,0.55029,-0.57568;
18:56:09.771,-0.60840,0.55444,-0.56641;
18:56:09.781,-0.61304,0.55884,-0.56152;
18:56:09.791,-0.61206,0.56079,-0.55957;
18:56:09.801,-0.60742,0.55859,-0.55981;
18:56:09.811,-0.60327,0.56152,-0.56592;
18:56:09.821,-0.60107,0.55664,-0.57642;
18:56:09.831,-0.59717,0.55151,-0.58789;
18:56:09.841,-0.59473,0.54761,-0.59277;
18:56:09.851,-0.59326,0.54443,-0.59424;
18:56:09.861,-0.59253,0.54346,-0.59644;
18:56:09.871,-0.58643,0.54321,-0.59521;
18:56:09.881,-0.58057,0.55225,-0.59155;
18:56:09.891,-0.58081,0.56030,-0.58862;
18:56:09.901,-0.58179,0.56421,-0.58765;
18:56:09.911,-0.58301,0.55762,-0.58740;
18:56:09.921,-0.58984,0.54736,-0.59424;
18:56:09.931,-0.59253,0.54639,-0.60547;
18:56:09.941,-0.58862,0.54199,-0.61548;
18:56:09.951,-0.58569,0.53784,-0.62427;
18:56:09.961,-0.58032,0.54395,-0.62402;
18:56:09.971,-0.57690,0.54517,-0.61768;
18:56:09.981,-0.57422,0.54517,-0.60254;
18:56:09.991,-0.57837,0.54956,-0.58789;
18:56:10.001,-0.59058,0.55347,-0.57446;
18:56:10.011,-0.60059,0.55737,-0.56909;
18:56:10.021,-0.60718,0.55957,-0.57397;
18:56:10.031,-0.60864,0.55615,-0.57568;
18:56:10.041,-0.60693,0.55566,-0.57227;
18:56:10.051,-0.60620,0.55591,-0.57153;
18:56:10.061,-0.60693,0.55273,-0.57959;
18:56:10.071,-0.60620,0.54883,-0.58374;
18:56:10.081,-0.60010,0.54321,-0.58765;
18:56:10.091,-0.59473,0.55249,-0.59131;
18:56:10.101,-0.58643,0.55737,-0.58984;
18:56:10.111,-0.58228,0.55200,-0.57642;
18:56:10.121,-0.58569,0.56006,-0.55957;
18:56:10.131,-0.59668,0.56299,-0.54614;
18:56:10.141,-0.61816,0.55029,-0.54346;
18:56:10.151,-0.62378,0.54248,-0.55859;
18:56:10.161,-0.62354,0.54565,-0.57617;
18:56:10.171,-0.61450,0.55347,-0.59009;
18:56:10.181,-0.59399,0.55371,-0.60278;
18:56:10.191,-0.58276,0.54395,-0.62061;
18:56:10.201,-0.57397,0.53613,-0.63550;
18:56:10.211,-0.56079,0.53174,-0.63452;
18:56:10.221,-0.55127,0.54004,-0.62744;
18:56:10.231,-0.56030,0.54492,-0.62231;
18:56:10.241,-0.57471,0.54150,-0.62061;
18:56:10.251,-0.58081,0.53369,-0.62451;
18:56:10.261,-0.58008,0.53223,-0.62866;
18:56:10.271,-0.57642,0.54175,-0.62744;
18:56:10.281,-0.57715,0.54614,-0.61670;
18:56:10.291,-0.57813,0.54761,-0.61450;
18:56:10.301,-0.57739,0.55200,-0.61621;
18:56:10.311,-0.57739,0.55396,-0.60596;
18:56:10.321,-0.57715,0.55737,-0.59595;
18:56:10.331,-0.58960,0.56104,-0.59448;
18:56:10.341,-0.60352,0.54980,-0.59375;
18:56:10.351,-0.60156,0.53638,-0.58472;
18:56:10.361,-0.60181,0.53979,-0.57397;
18:56:10.371,-0.61035,0.54077,-0.56909;
18:56:10.381,-0.61548,0.52930,-0.57861;
18:56:10.391,-0.60596,0.52832,-0.59082;
18:56:10.401,-0.59058,0.54688,-0.58911;
18:56:10.411,-0.57617,0.57251,-0.58252;
18:56:10.421,-0.57617,0.57886,-0.58130;
18:56:10.431,-0.58301,0.56592,-0.59204;
18:56:10.441,-0.57935,0.55005,-0.60132;
18:56:10.451,-0.58984,0.55249,-0.58521;
18:56:10.461,-0.60889,0.53833,-0.57910;
18:56:10.471,-0.59814,0.55884,-0.58301;
18:56:10.481,-0.60986,0.57422,-0.61523;
18:56:10.491,-0.54126,0.80225,0.11719;
18:56:10.501,-0.91772,0.57300,-1.23145;
18:56:10.511,-0.72168,0.14233,-1.05542;
18:56:10.521,-0.46460,0.06567,-0.57422;
18:56:10.531,-0.45239,0.32910,-0.72095;
18:56:10.541,-0.41968,0.55688,-0.65405;
18:56:10.551,-0.52246,0.81104,-0.49683;
18:56:10.561,-0.65015,0.55420,-0.64355;
18:56:10.571,-0.59448,0.47827,-0.71460;
18:56:10.581,-0.58740,0.54712,-0.72778;
18:56:10.591,-0.58911,0.61646,-0.69214;
18:56:10.601,-0.57300,0.58057,-0.63867;
18:56:10.611,-0.56006,0.52075,-0.62231;
18:56:10.621,-0.55615,0.48755,-0.64185;
18:56:10.631,-0.55103,0.47534,-0.66699;
18:56:10.641,-0.55078,0.47485,-0.67847;
18:56:10.651,-0.55518,0.50610,-0.67578;
18:56:10.661,-0.55957,0.55811,-0.65503;
18:56:10.671,-0.54590,0.58447,-0.62964;
18:56:10.681,-0.54907,0.59155,-0.60645;
18:56:10.691,-0.57373,0.58228,-0.58252;
18:56:10.701,-0.59302,0.56152,-0.57080;
18:56:10.711,-0.59204,0.54102,-0.55640;
18:56:10.721,-0.60132,0.52759,-0.54663;
18:56:10.731,-0.61963,0.53979,-0.55298;
18:56:10.741,-0.62500,0.55273,-0.56641;
18:56:10.751,-0.60718,0.56006,-0.58350;
18:56:10.761,-0.58301,0.55444,-0.58643;
18:56:10.771,-0.58472,0.54272,-0.58398;
18:56:10.781,-0.58545,0.53589,-0.59204;
18:56:10.791,-0.58301,0.53955,-0.60229;
18:56:10.801,-0.58423,0.54639,-0.60400;
18:56:10.811,-0.57300,0.55225,-0.59082;
18:56:10.821,-0.57642,0.55273,-0.57617;
18:56:10.831,-0.58887,0.54492,-0.56421;
18:56:10.841,-0.59033,0.55029,-0.55396;
18:56:10.851,-0.59229,0.56470,-0.55298;
18:56:10.861,-0.59790,0.56738,-0.56226;
18:56:10.871,-0.60498,0.55664,-0.57495;
18:56:10.881,-0.60156,0.55835,-0.58472;
18:56:10.891,-0.59644,0.57446,-0.59741;
18:56:10.901,-0.58325,0.58740,-0.60571;
18:56:10.911,-0.56567,0.58325,-0.59839;
18:56:10.921,-0.55200,0.56934,-0.59351;
18:56:10.931,-0.54785,0.56299,-0.59424;
18:56:10.941,-0.55298,0.55981,-0.59229;
18:56:10.951,-0.56104,0.55640,-0.59448;
18:56:10.961,-0.56494,0.55347,-0.60083;
18:56:10.971,-0.57227,0.55151,-0.59961;
18:56:10.981,-0.58301,0.54492,-0.59521;
18:56:10.991,-0.58887,0.54346,-0.59326;
18:56:11.001,-0.59009,0.54785,-0.59009;
18:56:11.011,-0.58960,0.55542,-0.58618;
18:56:11.021,-0.59375,0.56641,-0.57739;
18:56:11.031,-0.58887,0.57837,-0.57715;
18:56:11.041,-0.58838,0.58154,-0.58008;
18:56:11.051,-0.58813,0.56812,-0.58252;
18:56:11.061,-0.58325,0.55493,-0.58960;
18:56:11.071,-0.58496,0.55371,-0.59131;
18:56:11.081,-0.58374,0.55347,-0.58911;
18:56:11.091,-0.58398,0.55200,-0.58496;
18:56:11.101,-0.59106,0.54785,-0.58472;
18:56:11.111,-0.59790,0.55249,-0.59595;
18:56:11.121,-0.58960,0.56226,-0.60620;
18:56:11.131,-0.58301,0.56128,-0.60059;
18:56:11.141,-0.57495,0.56152,-0.59058;
18:56:11.151,-0.57471,0.55640,-0.59229;
18:56:11.161,-0.58105,0.54663,-0.59448;
18:56:11.171,-0.57935,0.54224,-0.58887;
18:56:11.181,-0.58081,0.54883,-0.58032;
18:56:11.191,-0.58960,0.55444,-0.58154;
18:56:11.201,-0.59985,0.56079,-0.58472;
18:56:11.211,-0.59937,0.56299,-0.58960;
18:56:11.221,-0.59937,0.56006,-0.59082;
18:56:11.231,-0.59155,0.56567,-0.58838;
18:56:11.241,-0.59033,0.57153,-0.57520;
18:56:11.251,-0.58984,0.56299,-0.56860;
18:56:11.261,-0.58862,0.54712,-0.58008;
18:56:11.271,-0.59619,0.54248,-0.59204;
18:56:11.281,-0.59741,0.54102,-0.59814;
18:56:11.291,-0.59644,0.54590,-0.59644;
18:56:11.301,-0.59888,0.55933,-0.59131;
18:56:11.311,-0.59790,0.56079,-0.58594;
18:56:11.321,-0.59766,0.55396,-0.58740;
18:56:11.331,-0.58496,0.54883,-0.59839;
18:56:11.341,-0.58789,0.54663,-0.59448;
18:56:11.351,-0.58350,0.56958,-0.58057;
18:56:11.361,-0.59937,0.54956,-0.57031;
18:56:11.371,-0.59497,0.55933,-0.59717;
18:56:11.381,-0.59033,0.55933,-0.59473;
18:56:11.391,-0.58228,0.57080,-0.58325;
18:56:11.401,-0.58057,0.57666,-0.56421;
18:56:11.411,-0.58594,0.56665,-0.55420;
18:56:11.421,-0.59131,0.56470,-0.55664;
18:56:11.431,-0.59497,0.56128,-0.56543;
18:56:11.441,-0.59717,0.55542,-0.57617;
18:56:11.451,-0.60254,0.55273,-0.58398;
18:56:11.461,-0.60547,0.55298,-0.58081;
18:56:11.471,-0.59888,0.56641,-0.57617;
18:56:11.481,-0.59277,0.57690,-0.57544;
18:56:11.491,-0.59229,0.57397,-0.57642;
18:56:11.501,-0.58813,0.56519,-0.58423;
18:56:11.511,-0.58276,0.56079,-0.59082;
18:56:11.521,-0.58618,0.55859,-0.58252;
18:56:11.531,-0.58984,0.54980,-0.57813;
18:56:11.541,-0.59521,0.55298,-0.57520;
18:56:11.551,-0.59814,0.56665,-0.56982;
18:56:11.561,-0.59741,0.57031,-0.56348;
18:56:11.571,-0.59302,0.56982,-0.56567;
18:56:11.581,-0.57764,0.57568,-0.57715;
18:56:11.591,-0.60303,0.56665,-0.57764;
18:56:11.601,-0.57861,0.52466,-0.59302;
18:56:11.611,-0.59082,0.53467,-0.60962;
18:56:11.621,-0.60596,0.55811,-0.59766;
18:56:11.631,-0.58716,0.54810,-0.58081;
18:56:11.641,-0.60498,0.55225,-0.57568;
18:56:11.651,-0.60059,0.55591,-0.57520;
18:56:11.661,-0.60449,0.56177,-0.57568;
18:56:11.671,-0.59790,0.56323,-0.57202;
18:56:11.681,-0.59741,0.56470,-0.56641;
18:56:11.691,-0.59741,0.56128,-0.57104;
18:56:11.701,-0.60034,0.55664,-0.57666;
18:56:11.711,-0.59399,0.55664,-0.58740;
18:56:11.721,-0.59277,0.56201,-0.59253;
18:56:11.731,-0.58765,0.56787,-0.59106;
18:56:11.741,-0.58838,0.56470,-0.58960;
18:56:11.751,-0.58398,0.55908,-0.58691;
18:56:11.761,-0.58423,0.55640,-0.58203;
18:56:11.771,-0.58789,0.55664,-0.57373;
18:56:11.781,-0.58813,0.55371,-0.57495;
18:56:11.791,-0.59473,0.55200,-0.57617;
18:56:11.801,-0.60132,0.55078,-0.57886;
18:56:11.811,-0.60425,0.55322,-0.58447;
18:56:11.821,-0.60107,0.56030,-0.58130;
18:56:11.831,-0.59741,0.57202,-0.57813;
18:56:11.841,-0.59644,0.58423,-0.57910;
18:56:11.851,-0.59326,0.57446,-0.57495;
18:56:11.861,-0.59204,0.55005,-0.57642;
18:56:11.871,-0.59302,0.54614,-0.58081;
18:56:11.881,-0.59155,0.55396,-0.58105;
18:56:11.891,-0.59277,0.56201,-0.57446;
18:56:11.901,-0.59644,0.56689,-0.56421;
18:56:11.911,-0.59985,0.56470,-0.56055;
18:56:11.921,-0.59937,0.56689,-0.55713;
18:56:11.931,-0.60059,0.56592,-0.56201;
18:56:11.941,-0.59546,0.56567,-0.56958;
18:56:11.951,-0.59277,0.56787,-0.57202;
18:56:11.961,-0.59424,0.55981,-0.57764;
18:56:11.971,-0.59595,0.55273,-0.59204;
18:56:11.981,-0.59692,0.55688,-0.60010;
18:56:11.991,-0.59229,0.55713,-0.59546;
18:56:12.001,-0.58887,0.56104,-0.58838;
18:56:12.011,-0.58716,0.57007,-0.57788;
18:56:12.021,-0.58374,0.57129,-0.57373;
18:56:12.031,-0.58618,0.56226,-0.57544;
18:56:12.041,-0.58691,0.55029,-0.58691;
18:56:12.051,-0.58862,0.54639,-0.59155;
18:56:12.061,-0.59106,0.54443,-0.59058;
18:56:12.071,-0.59229,0.54907,-0.59497;
18:56:12.081,-0.59399,0.55811,-0.59692;
18:56:12.091,-0.59180,0.56226,-0.59692;
18:56:12.101,-0.59204,0.55542,-0.59302;
18:56:12.111,-0.58838,0.55371,-0.58960;
18:56:12.121,-0.58594,0.55981,-0.58691;
18:56:12.131,-0.58667,0.56372,-0.58325;
18:56:12.141,-0.58960,0.55835,-0.58032;
18:56:12.151,-0.59106,0.55566,-0.58154;
18:56:12.161,-0.58911,0.55957,-0.58423;
18:56:12.171,-0.59082,0.55713,-0.58179;
18:56:12.181,-0.59521,0.55664,-0.57935;
18:56:12.191,-0.59424,0.55859,-0.57886;
18:56:12.201,-0.59766,0.55908,-0.57739;
18:56:12.211,-0.59912,0.55835,-0.57837;
18:56:12.221,-0.59985,0.56494,-0.57739;
18:56:12.231,-0.59644,0.56079,-0.57300;
18:56:12.241,-0.59326,0.55688,-0.57788;
18:56:12.251,-0.58813,0.56201,-0.57080;
18:56:12.261,-0.58887,0.57568,-0.58105;
18:56:12.271,-0.59790,0.54395,-0.58179;
18:56:12.281,-0.59082,0.54517,-0.58716;
18:56:12.291,-0.58618,0.56006,-0.59546;
18:56:12.301,-0.59375,0.57397,-0.58691;
18:56:12.311,-0.58838,0.56323,-0.57520;
18:56:12.321,-0.59131,0.55298,-0.57104;
18:56:12.331,-0.59351,0.55884,-0.57983;
18:56:12.341,-0.59326,0.56079,-0.58179;
18:56:12.351,-0.58960,0.55811,-0.58301;
18:56:12.361,-0.58862,0.55762,-0.58179;
18:56:12.371,-0.58887,0.55835,-0.58130;
18:56:12.381,-0.59155,0.55640,-0.58252;
18:56:12.391,-0.59326,0.55786,-0.58618;
18:56:12.401,-0.59375,0.55762,-0.58667;
18:56:12.411,-0.59424,0.56128,-0.58472;
18:56:12.421,-0.59595,0.56152,-0.58301;
18:56:12.431,-0.59521,0.55371,-0.58154;
18:56:12.441,-0.59473,0.55469,-0.58398;
18:56:12.451,-0.58984,0.56055,-0.58325;
18:56:12.461,-0.58521,0.56274,-0.58276;
18:56:12.471,-0.58740,0.56152,-0.58081;
18:56:12.481,-0.58789,0.55493,-0.58545;
18:56:12.491,-0.58691,0.55078,-0.58618;
18:56:12.501,-0.59106,0.55493,-0.58447;
18:56:12.511,-0.59766,0.55859,-0.58374;
18:56:12.521,-0.59741,0.55664,-0.58057;
18:56:12.531,-0.59570,0.55664,-0.58032;
18:56:12.541,-0.59375,0.56030,-0.58179;
18:56:12.551,-0.59399,0.56348,-0.58130;
18:56:12.561,-0.59546,0.56274,-0.58154;
18:56:12.571,-0.59424,0.56250,-0.58203;
18:56:12.581,-0.59204,0.56274,-0.58130;
18:56:12.591,-0.59082,0.55664,-0.57324;
18:56:12.601,-0.58740,0.55225,-0.56982;
18:56:12.611,-0.59595,0.55298,-0.56909;
18:56:12.621,-0.60205,0.55347,-0.57104;
18:56:12.631,-0.59766,0.55518,-0.58057;
18:56:12.641,-0.59546,0.56665,-0.57910;
18:56:12.651,-0.59473,0.57544,-0.58423;
18:56:12.661,-0.59204,0.57349,-0.59546;
18:56:12.671,-0.58569,0.56323,-0.59985;
18:56:12.681,-0.58130,0.54858,-0.59497;
18:56:12.691,-0.58569,0.54663,-0.58984;
18:56:12.701,-0.59082,0.55273,-0.58813;
18:56:12.711,-0.59302,0.55811,-0.57959;
18:56:12.721,-0.59985,0.55933,-0.57495;
18:56:12.731,-0.59766,0.56226,-0.57080;
18:56:12.741,-0.59277,0.56445,-0.57275;
18:56:12.751,-0.59033,0.56519,-0.57544;
18:56:12.761,-0.59204,0.56616,-0.57300;
18:56:12.771,-0.59058,0.55444,-0.57861;
18:56:12.781,-0.59082,0.54956,-0.58765;
18:56:12.791,-0.59106,0.55713,-0.59131;
18:56:12.801,-0.58569,0.55811,-0.59790;
18:56:12.811,-0.58472,0.56641,-0.60229;
18:56:12.821,-0.58838,0.56836,-0.59180;
18:56:12.831,-0.58813,0.55542,-0.58545;
18:56:12.841,-0.58691,0.55249,-0.58276;
18:56:12.851,-0.58911,0.55713,-0.57471;
18:56:12.861,-0.58960,0.55664,-0.56812;
18:56:12.871,-0.59399,0.55811,-0.56348;
18:56:12.881,-0.59668,0.55957,-0.56641;
18:56:12.891,-0.60229,0.56128,-0.56860;
18:56:12.901,-0.60229,0.55981,-0.57202;
18:56:12.911,-0.60352,0.55933,-0.57983;
18:56:12.921,-0.60083,0.56226,-0.57813;
18:56:12.931,-0.59570,0.56641,-0.58057;
18:56:12.941,-0.59644,0.56592,-0.58203;
18:56:12.951,-0.59277,0.55859,-0.58252;
18:56:12.961,-0.59033,0.55298,-0.58936;
18:56:12.971,-0.58911,0.55249,-0.59253;
18:56:12.981,-0.58960,0.55688,-0.59155;
18:56:12.991,-0.58691,0.55542,-0.58667;
18:56:13.001,-0.58569,0.55493,-0.58350;
18:56:13.011,-0.58960,0.55542,-0.58130;
18:56:13.021,-0.58984,0.55444,-0.57666;
18:56:13.031,-0.59302,0.55273,-0.57813;
18:56:13.041,-0.59448,0.55615,-0.57935;
18:56:13.051,-0.59131,0.55981,-0.57764;
18:56:13.061,-0.59302,0.56445,-0.58130;
18:56:13.071,-0.59473,0.56738,-0.59009;
18:56:13.081,-0.59229,0.56274,-0.59814;
18:56:13.091,-0.58765,0.55664,-0.60205;
18:56:13.101,-0.58447,0.55298,-0.59570;
18:56:13.111,-0.58203,0.55664,-0.58862;
18:56:13.121,-0.58521,0.55933,-0.58594;
18:56:13.131,-0.59082,0.55322,-0.57715;
18:56:13.141,-0.59229,0.56055,-0.57739;
18:56:13.151,-0.59644,0.56274,-0.58594;
18:56:13.161,-0.59009,0.55933,-0.59888;
18:56:13.171,-0.58569,0.55835,-0.58447;
18:56:13.181,-0.59448,0.55786,-0.57764;
18:56:13.191,-0.59644,0.56128,-0.57861;
18:56:13.201,-0.59595,0.55786,-0.58008;
18:56:13.211,-0.59473,0.55444,-0.57959;
18:56:13.221,-0.59546,0.55884,-0.57886;
18:56:13.231,-0.58496,0.56250,-0.58740;
18:56:13.241,-0.58691,0.55298,-0.58643;
18:56:13.251,-0.58398,0.55176,-0.58643;
18:56:13.261,-0.58813,0.56030,-0.58130;
18:56:13.271,-0.59302,0.56030,-0.57544;
18:56:13.281,-0.59863,0.55566,-0.57642;
18:56:13.291,-0.60059,0.55737,-0.57886;
18:56:13.301,-0.59912,0.56128,-0.58057;
18:56:13.311,-0.59424,0.56641,-0.58423;
18:56:13.321,-0.58813,0.56567,-0.58521;
18:56:13.331,-0.58887,0.56177,-0.58667;
18:56:13.341,-0.58716,0.56201,-0.58887;
18:56:13.351,-0.58765,0.56030,-0.58960;
18:56:13.361,-0.58838,0.55493,-0.58594;
18:56:13.371,-0.59082,0.55444,-0.58008;
18:56:13.381,-0.59204,0.55786,-0.57788;
18:56:13.391,-0.58960,0.55933,-0.57471;
18:56:13.401,-0.59131,0.55835,-0.57495;
18:56:13.411,-0.58984,0.56006,-0.57690;
18:56:13.421,-0.58984,0.56226,-0.57642;
18:56:13.431,-0.58813,0.55957,-0.57983;
18:56:13.441,-0.59180,0.55713,-0.58057;
18:56:13.451,-0.59790,0.55371,-0.58643;
18:56:13.461,-0.59814,0.55200,-0.59058;
18:56:13.471,-0.59717,0.55542,-0.58838;
18:56:13.481,-0.59326,0.56177,-0.58643;
18:56:13.491,-0.59204,0.56372,-0.57764;
18:56:13.501,-0.59351,0.55957,-0.57813;
18:56:13.511,-0.59668,0.55591,-0.58008;
18:56:13.521,-0.59424,0.55591,-0.57959;
18:56:13.531,-0.59082,0.55737,-0.58521;
18:56:13.541,-0.58813,0.55713,-0.58594;
18:56:13.551,-0.58691,0.55615,-0.58350;
18:56:13.561,-0.58765,0.56152,-0.58472;
18:56:13.571,-0.58887,0.56030,-0.59399;
18:56:13.581,-0.58643,0.55762,-0.60229;
18:56:13.591,-0.58496,0.55884,-0.60498;
18:56:13.601,-0.58398,0.55273,-0.60181;
18:56:13.611,-0.58569,0.54883,-0.59619;
18:56:13.621,-0.59106,0.54907,-0.58887;
18:56:13.631,-0.59155,0.55566,-0.57935;
18:56:13.641,-0.59424,0.56396,-0.56934;
18:56:13.651,-0.59619,0.56665,-0.56470;
18:56:13.661,-0.60083,0.56543,-0.56445;
18:56:13.671,-0.59790,0.55786,-0.56982;
18:56:13.681,-0.59180,0.55542,-0.57495;
18:56:13.691,-0.59106,0.55835,-0.58252;
18:56:13.701,-0.58960,0.55884,-0.59204;
18:56:13.711,-0.58740,0.55957,-0.60010;
18:56:13.721,-0.58398,0.56030,-0.60229;
18:56:13.731,-0.58374,0.55737,-0.59814;
18:56:13.741,-0.58521,0.55078,-0.59131;
18:56:13.751,-0.58667,0.55322,-0.58276;
18:56:13.761,-0.58960,0.55859,-0.57129;
18:56:13.771,-0.59546,0.56152,-0.55811;
18:56:13.781,-0.60059,0.55786,-0.55615;
18:56:13.791,-0.60425,0.55981,-0.56226;
18:56:13.801,-0.60376,0.56104,-0.56665;
18:56:13.811,-0.60059,0.56177,-0.57080;
18:56:13.821,-0.59766,0.56665,-0.58643;
18:56:13.831,-0.58911,0.56250,-0.59766;
18:56:13.841,-0.58423,0.55518,-0.60083;
18:56:13.851,-0.58130,0.55347,-0.60815;
18:56:13.861,-0.57886,0.55835,-0.61011;
18:56:13.871,-0.57788,0.55640,-0.59790;
18:56:13.881,-0.58081,0.55176,-0.59009;
18:56:13.891,-0.58765,0.55347,-0.58447;
18:56:13.901,-0.59473,0.55444,-0.58154;
18:56:13.911,-0.59619,0.55420,-0.57788;
18:56:13.921,-0.59375,0.56055,-0.56934;
18:56:13.931,-0.59473,0.56494,-0.56738;
18:56:13.941,-0.59082,0.56445,-0.57251;
18:56:13.951,-0.58887,0.56104,-0.58447;
18:56:13.961,-0.58643,0.55981,-0.60181;
18:56:13.971,-0.58228,0.55615,-0.59399;
18:56:13.981,-0.59106,0.55347,-0.58569;
18:56:13.991,-0.59229,0.55981,-0.57690;
18:56:14.001,-0.59351,0.55811,-0.56934;
18:56:14.011,-0.59326,0.56201,-0.58374;
18:56:14.021,-0.59106,0.55591,-0.58667;
18:56:14.031,-0.58813,0.55127,-0.58740;
18:56:14.041,-0.58838,0.55884,-0.59277;
18:56:14.051,-0.59009,0.56396,-0.60059;
18:56:14.061,-0.58569,0.55542,-0.59985;
18:56:14.071,-0.58618,0.54834,-0.59961;
18:56:14.081,-0.58691,0.55322,-0.59497;
18:56:14.091,-0.58936,0.55981,-0.58447;
18:56:14.101,-0.59131,0.56079,-0.57422;
18:56:14.111,-0.59326,0.55981,-0.56567;
18:56:14.121,-0.59570,0.55615,-0.56421;
18:56:14.131,-0.59839,0.55249,-0.56445;
18:56:14.141,-0.60132,0.55859,-0.56885;
18:56:14.151,-0.59961,0.56445,-0.57813;
18:56:14.161,-0.59521,0.56567,-0.59180;
18:56:14.171,-0.58716,0.56299,-0.60547;
18:56:14.181,-0.58105,0.55420,-0.60889;
18:56:14.191,-0.58154,0.55151,-0.59912;
18:56:14.201,-0.58325,0.55249,-0.58740;
18:56:14.211,-0.58765,0.55029,-0.58203;
18:56:14.221,-0.59106,0.55469,-0.57129;
18:56:14.231,-0.59497,0.55786,-0.56104;
18:56:14.241,-0.60010,0.56396,-0.56006;
18:56:14.251,-0.60620,0.56543,-0.56030;
18:56:14.261,-0.60132,0.56250,-0.56592;
18:56:14.271,-0.59277,0.57202,-0.57422;
18:56:14.281,-0.59082,0.57422,-0.58398;
18:56:14.291,-0.58789,0.56372,-0.59326;
18:56:14.301,-0.58423,0.55298,-0.60010;
18:56:14.311,-0.58276,0.55005,-0.59985;
18:56:14.321,-0.58252,0.55322,-0.59351;
18:56:14.331,-0.58521,0.55835,-0.58813;
18:56:14.341,-0.58569,0.56494,-0.57983;
18:56:14.351,-0.58594,0.56226,-0.57813;
18:56:14.361,-0.58887,0.55713,-0.57617;
18:56:14.371,-0.58936,0.55249,-0.57959;
18:56:14.381,-0.59106,0.55005,-0.58545;
18:56:14.391,-0.59448,0.55200,-0.58643;
18:56:14.401,-0.59058,0.55518,-0.59058;
18:56:14.411,-0.59155,0.55933,-0.59009;
18:56:14.421,-0.59155,0.56201,-0.59326;
18:56:14.431,-0.58350,0.56641,-0.60376;
18:56:14.441,-0.58350,0.56665,-0.59888;
18:56:14.451,-0.58325,0.55298,-0.59473;
18:56:14.461,-0.58545,0.54712,-0.58887;
18:56:14.471,-0.58789,0.55176,-0.57446;
18:56:14.481,-0.59106,0.55469,-0.56738;
18:56:14.491,-0.59448,0.55444,-0.56128;
18:56:14.501,-0.59692,0.55835,-0.56494;
18:56:14.511,-0.59888,0.56079,-0.57227;
18:56:14.521,-0.59741,0.56274,-0.57959;
18:56:14.531,-0.59839,0.56201,-0.58838;
18:56:14.541,-0.59277,0.56372,-0.59814;
18:56:14.551,-0.58496,0.56201,-0.60278;
18:56:14.561,-0.58252,0.55396,-0.59912;
18:56:14.571,-0.58057,0.55176,-0.59448;
18:56:14.581,-0.58276,0.55005,-0.59253;
18:56:14.591,-0.58643,0.55542,-0.58740;
18:56:14.601,-0.59082,0.56006,-0.58130;
18:56:14.611,-0.59326,0.55737,-0.57568;
18:56:14.621,-0.59644,0.55469,-0.57373;
18:56:14.631,-0.59912,0.55420,-0.57715;
18:56:14.641,-0.59277,0.55298,-0.57788;
18:56:14.651,-0.59106,0.55688,-0.57715;
18:56:14.661,-0.59058,0.56348,-0.58032;
18:56:14.671,-0.59180,0.56909,-0.58521;
18:56:14.681,-0.58838,0.56348,-0.59399;
18:56:14.691,-0.58374,0.56128,-0.60840;
18:56:14.701,-0.58032,0.56030,-0.60693;
18:56:14.711,-0.57837,0.55200,-0.59399;
18:56:14.721,-0.58130,0.54907,-0.59448;
18:56:14.731,-0.58081,0.55225,-0.58887;
18:56:14.741,-0.58350,0.55420,-0.58179;
18:56:14.751,-0.58716,0.55786,-0.58203;
18:56:14.761,-0.58984,0.55981,-0.57520;
18:56:14.771,-0.59229,0.55884,-0.57056;
18:56:14.781,-0.59741,0.55933,-0.57202;
18:56:14.791,-0.59717,0.55688,-0.58057;
18:56:14.801,-0.59717,0.55835,-0.58130;
18:56:14.811,-0.59473,0.56177,-0.58496;
18:56:14.821,-0.59106,0.56836,-0.58691;
18:56:14.831,-0.59229,0.56445,-0.58838;
18:56:14.841,-0.59058,0.55957,-0.58838;
18:56:14.851,-0.58618,0.55566,-0.57886;
18:56:14.861,-0.59009,0.55664,-0.57544;
18:56:14.871,-0.58984,0.56079,-0.57886;
18:56:14.881,-0.58936,0.56055,-0.58545;
18:56:14.891,-0.58765,0.55908,-0.59912;
18:56:14.901,-0.58911,0.55127,-0.59937;
18:56:14.911,-0.59106,0.55688,-0.59375;
18:56:14.921,-0.58936,0.55981,-0.58984;
18:56:14.931,-0.58691,0.56128,-0.57935;
18:56:14.941,-0.58716,0.56177,-0.56445;
18:56:14.951,-0.59131,0.55981,-0.56372;
18:56:14.961,-0.59668,0.55688,-0.56958;
18:56:14.971,-0.59180,0.55469,-0.58350;
18:56:14.981,-0.58691,0.55811,-0.59351;
18:56:14.991,-0.58521,0.56250,-0.60181;
18:56:15.001,-0.58130,0.56030,-0.60010;
18:56:15.011,-0.58203,0.55127,-0.59277;
18:56:15.021,-0.58716,0.55200,-0.58789;
18:56:15.031,-0.59375,0.55615,-0.57910;
18:56:15.041,-0.60254,0.55420,-0.57495;
18:56:15.051,-0.60181,0.55908,-0.56714;
18:56:15.061,-0.60107,0.56494,-0.55737;
18:56:15.071,-0.60327,0.56689,-0.55762;
18:56:15.081,-0.60498,0.56250,-0.56226;
18:56:15.091,-0.60083,0.55884,-0.56885;
18:56:15.101,-0.59253,0.56201,-0.57544;
18:56:15.111,-0.59033,0.56543,-0.58008;
18:56:15.121,-0.58423,0.56396,-0.58643;
18:56:15.131,-0.58789,0.55908,-0.58569;
18:56:15.141,-0.58569,0.55322,-0.59082;
18:56:15.151,-0.58301,0.55420,-0.59692;
18:56:15.161,-0.58325,0.55981,-0.59448;
18:56:15.171,-0.58252,0.56177,-0.59180;
18:56:15.181,-0.58350,0.55957,-0.58374;
18:56:15.191,-0.58496,0.55933,-0.57690;
18:56:15.201,-0.58936,0.56445,-0.57690;
18:56:15.211,-0.59131,0.56226,-0.58276;
18:56:15.221,-0.59106,0.55664,-0.58862;
18:56:15.231,-0.58960,0.55518,-0.58740;
18:56:15.241,-0.59033,0.55737,-0.58521;
18:56:15.251,-0.59082,0.56030,-0.58325;
18:56:15.261,-0.58887,0.55981,-0.58838;
18:56:15.271,-0.58911,0.55811,-0.59277;
18:56:15.281,-0.59009,0.55347,-0.59473;
18:56:15.291,-0.58569,0.54956,-0.59351;
18:56:15.301,-0.58521,0.55493,-0.58960;
18:56:15.311,-0.58813,0.56348,-0.58423;
18:56:15.321,-0.58960,0.55957,-0.57617;
18:56:15.331,-0.58911,0.55493,-0.57910;
18:56:15.341,-0.58936,0.55298,-0.58301;
18:56:15.351,-0.58911,0.54980,-0.58618;
18:56:15.361,-0.58789,0.55298,-0.58740;
18:56:15.371,-0.58887,0.55786,-0.58643;
18:56:15.381,-0.58960,0.56055,-0.59717;
18:56:15.391,-0.58716,0.56030,-0.60010;
18:56:15.401,-0.58618,0.55664,-0.59570;
18:56:15.411,-0.58618,0.55273,-0.59717;
18:56:15.421,-0.58569,0.55249,-0.59717;
18:56:15.431,-0.59106,0.55322,-0.58911;
18:56:15.441,-0.59277,0.55005,-0.57983;
18:56:15.451,-0.59521,0.55200,-0.57422;
18:56:15.461,-0.60059,0.55591,-0.56812;
18:56:15.471,-0.59961,0.55273,-0.57251;
18:56:15.481,-0.59961,0.55762,-0.57471;
18:56:15.491,-0.59473,0.56274,-0.58008;
18:56:15.501,-0.58691,0.56592,-0.58691;
18:56:15.511,-0.58398,0.56665,-0.58960;
18:56:15.521,-0.58398,0.55786,-0.59351;
18:56:15.531,-0.58423,0.55591,-0.60181;
18:56:15.541,-0.58252,0.55591,-0.60522;
18:56:15.551,-0.58154,0.55566,-0.59448;
18:56:15.561,-0.58325,0.55542,-0.58716;
18:56:15.571,-0.58862,0.55786,-0.58154;
18:56:15.581,-0.58984,0.55713,-0.57104;
18:56:15.591,-0.59131,0.55054,-0.56836;
18:56:15.601,-0.59277,0.55249,-0.56934;
18:56:15.611,-0.59155,0.55811,-0.57373;
18:56:15.621,-0.59106,0.56055,-0.57813;
18:56:15.631,-0.59277,0.55908,-0.58130;
18:56:15.641,-0.59668,0.55786,-0.59180;
18:56:15.651,-0.59766,0.55566,-0.60034;
18:56:15.661,-0.59497,0.55737,-0.59888;
18:56:15.671,-0.59229,0.55859,-0.58911;
18:56:15.681,-0.59229,0.56104,-0.58081;
18:56:15.691,-0.59253,0.56030,-0.57300;
18:56:15.701,-0.59351,0.55298,-0.57251;
18:56:15.711,-0.59253,0.55664,-0.57544;
18:56:15.721,-0.58911,0.55737,-0.58472;
18:56:15.731,-0.58643,0.55957,-0.58887;
18:56:15.741,-0.58032,0.56104,-0.58496;
18:56:15.751,-0.57788,0.55566,-0.60059;
18:56:15.761,-0.57764,0.55835,-0.59766;
18:56:15.771,-0.58594,0.55420,-0.59253;
18:56:15.781,-0.59180,0.55103,-0.57813;
18:56:15.791,-0.59741,0.56128,-0.56641;
18:56:15.801,-0.60059,0.55762,-0.56616;
18:56:15.811,-0.60205,0.55786,-0.57153;
18:56:15.821,-0.59912,0.56323,-0.57495;
18:56:15.831,-0.59741,0.56372,-0.58203;
18:56:15.841,-0.59497,0.56274,-0.58887;
18:56:15.851,-0.59570,0.56128,-0.59155;
18:56:15.861,-0.59131,0.55347,-0.59766;
18:56:15.871,-0.58398,0.55859,-0.60205;
18:56:15.881,-0.58032,0.56201,-0.59180;
18:56:15.891,-0.57935,0.55444,-0.58887;
18:56:15.901,-0.58130,0.55176,-0.58789;
18:56:15.911,-0.58081,0.55103,-0.58740;
18:56:15.921,-0.58179,0.54810,-0.58960;
18:56:15.931,-0.58179,0.55273,-0.58838;
18:56:15.941,-0.58130,0.55322,-0.59155;
18:56:15.951,-0.58081,0.55396,-0.59229;
18:56:15.961,-0.58374,0.55371,-0.58960;
18:56:15.971,-0.58862,0.55176,-0.59937;
18:56:15.981,-0.59106,0.55347,-0.61328;
18:56:15.991,-0.58643,0.55127,-0.61597;
18:56:16.001,-0.58032,0.55103,-0.61255;
18:56:16.011,-0.57788,0.55713,-0.60181;
18:56:16.021,-0.58545,0.55029,-0.59375;
18:56:16.031,-0.59180,0.54492,-0.59717;
18:56:16.041,-0.59204,0.54395,-0.60083;
18:56:16.051,-0.58960,0.54858,-0.59692;
18:56:16.061,-0.58374,0.55786,-0.59229;
18:56:16.071,-0.58447,0.55859,-0.58691;
18:56:16.081,-0.58447,0.55396,-0.58936;
18:56:16.091,-0.58496,0.54419,-0.59570;
18:56:16.101,-0.58789,0.54468,-0.60449;
18:56:16.111,-0.58423,0.54810,-0.60474;
18:56:16.121,-0.57886,0.55322,-0.59912;
18:56:16.131,-0.57886,0.55566,-0.59375;
18:56:16.141,-0.58105,0.55420,-0.59058;
18:56:16.151,-0.58618,0.55005,-0.59302;
18:56:16.161,-0.58911,0.54712,-0.59302;
18:56:16.171,-0.58862,0.54980,-0.59180;
18:56:16.181,-0.58936,0.55371,-0.58838;
18:56:16.191,-0.59106,0.55542,-0.58472;
18:56:16.201,-0.58765,0.55640,-0.58423;
18:56:16.211,-0.58496,0.55640,-0.58887;
18:56:16.221,-0.58350,0.55981,-0.58765;
18:56:16.231,-0.58203,0.56079,-0.58862;
18:56:16.241,-0.58032,0.55420,-0.59912;
18:56:16.251,-0.58057,0.54639,-0.60156;
18:56:16.261,-0.57935,0.54419,-0.60181;
18:56:16.271,-0.57935,0.54614,-0.60254;
18:56:16.281,-0.58276,0.55078,-0.59644;
18:56:16.291,-0.58813,0.55225,-0.59082;
18:56:16.301,-0.58862,0.55347,-0.59253;
18:56:16.311,-0.58813,0.55493,-0.59570;
18:56:16.321,-0.58765,0.54907,-0.59937;
18:56:16.331,-0.57935,0.55273,-0.59766;
18:56:16.341,-0.57666,0.55640,-0.59229;
18:56:16.351,-0.57788,0.55811,-0.59741;
18:56:16.361,-0.57983,0.55493,-0.60425;
18:56:16.371,-0.58447,0.54907,-0.61206;
18:56:16.381,-0.57959,0.54614,-0.61426;
18:56:16.391,-0.57813,0.54663,-0.60815;
18:56:16.401,-0.57935,0.55469,-0.60547;
18:56:16.411,-0.57764,0.55396,-0.59985;
18:56:16.421,-0.57886,0.54932,-0.59595;
18:56:16.431,-0.58081,0.54956,-0.59302;
18:56:16.441,-0.58569,0.55054,-0.58960;
18:56:16.451,-0.58789,0.55054,-0.58545;
18:56:16.461,-0.58765,0.54834,-0.58569;
18:56:16.471,-0.58789,0.55078,-0.58838;
18:56:16.481,-0.58667,0.55664,-0.59180;
18:56:16.491,-0.58301,0.55640,-0.59863;
18:56:16.501,-0.58203,0.55762,-0.60376;
18:56:16.511,-0.57861,0.55444,-0.60913;
18:56:16.521,-0.57813,0.55176,-0.60767;
18:56:16.531,-0.57568,0.55176,-0.60815;
18:56:16.541,-0.57520,0.54688,-0.60107;
18:56:16.551,-0.58057,0.55200,-0.59009;
18:56:16.561,-0.58374,0.55615,-0.57983;
18:56:16.571,-0.59106,0.55005,-0.57666;
18:56:16.581,-0.59229,0.54541,-0.58325;
18:56:16.591,-0.59155,0.54810,-0.58667;
18:56:16.601,-0.58765,0.55615,-0.59399;
18:56:16.611,-0.58105,0.56372,-0.59668;
18:56:16.621,-0.58228,0.56250,-0.60449;
18:56:16.631,-0.58276,0.55371,-0.61499;
18:56:16.641,-0.57861,0.55225,-0.61279;
18:56:16.651,-0.58057,0.55566,-0.59717;
18:56:16.661,-0.57739,0.54785,-0.58521;
18:56:16.671,-0.58521,0.55078,-0.58301;
18:56:16.681,-0.58740,0.54663,-0.59277;
18:56:16.691,-0.57886,0.55884,-0.60449;
18:56:16.701,-0.57373,0.56177,-0.60571;
18:56:16.711,-0.57007,0.55957,-0.60669;
18:56:16.721,-0.56885,0.55542,-0.61133;
18:56:16.731,-0.56689,0.55835,-0.60645;
18:56:16.741,-0.55835,0.55542,-0.59351;
18:56:16.751,-0.55078,0.54419,-0.58813;
18:56:16.761,-0.55762,0.53613,-0.57813;
18:56:16.771,-0.58105,0.52637,-0.58081;
18:56:16.781,-0.59375,0.51636,-0.58936;
18:56:16.791,-0.58667,0.52124,-0.58618;
18:56:16.801,-0.58496,0.53784,-0.58374;
18:56:16.811,-0.59717,0.55322,-0.59180;
18:56:16.821,-0.61621,0.57666,-0.59888;
18:56:16.831,-0.64478,0.57568,-0.60254;
18:56:16.841,-0.64307,0.55200,-0.60547;
18:56:16.851,-0.63379,0.56519,-0.61230;
18:56:16.861,-0.64209,0.61719,-0.62036;
18:56:16.871,-0.60034,0.59717,-0.61450;
18:56:16.881,-0.56152,0.53687,-0.62109;
18:56:16.891,-0.52637,0.54590,-0.61816;
18:56:16.901,-0.53076,0.53809,-0.60620;
18:56:16.911,-0.54834,0.53711,-0.59619;
18:56:16.921,-0.56519,0.55347,-0.59033;
18:56:16.931,-0.58081,0.56055,-0.59692;
18:56:16.941,-0.58911,0.56055,-0.61279;
18:56:16.951,-0.59497,0.55518,-0.61572;
18:56:16.961,-0.59717,0.55640,-0.61499;
18:56:16.971,-0.57690,0.54468,-0.60815;
18:56:16.981,-0.57251,0.54907,-0.59058;
18:56:16.991,-0.57471,0.57251,-0.57520;
18:56:17.001,-0.57788,0.58008,-0.56323;
18:56:17.011,-0.59106,0.56543,-0.56323;
18:56:17.021,-0.59863,0.55347,-0.56519;
18:56:17.031,-0.60400,0.55664,-0.57202;
18:56:17.041,-0.60864,0.55200,-0.57544;
18:56:17.051,-0.61133,0.54858,-0.57202;
18:56:17.061,-0.60449,0.55029,-0.56641;
18:56:17.071,-0.59424,0.56006,-0.56543;
18:56:17.081,-0.58936,0.57202,-0.57422;
18:56:17.091,-0.58643,0.57617,-0.58252;
18:56:17.101,-0.58105,0.56641,-0.59009;
18:56:17.111,-0.58105,0.55005,-0.58594;
18:56:17.121,-0.58911,0.53467,-0.58447;
18:56:17.131,-0.59106,0.53223,-0.58008;
18:56:17.141,-0.59961,0.53076,-0.57031;
18:56:17.151,-0.61548,0.53198,-0.56567;
18:56:17.161,-0.61646,0.54175,-0.56323;
18:56:17.171,-0.61646,0.55688,-0.56519;
18:56:17.181,-0.61377,0.56372,-0.57813;
18:56:17.191,-0.60400,0.56250,-0.58643;
18:56:17.201,-0.59326,0.56372,-0.58618;
18:56:17.211,-0.58496,0.55542,-0.58569;
18:56:17.221,-0.58594,0.55103,-0.58105;
18:56:17.231,-0.58813,0.54590,-0.57861;
18:56:17.241,-0.59692,0.53174,-0.58569;
18:56:17.251,-0.60474,0.52783,-0.59229;
18:56:17.261,-0.60693,0.52539,-0.58887;
18:56:17.271,-0.60400,0.52368,-0.58716;
18:56:17.281,-0.59082,0.54224,-0.58618;
18:56:17.291,-0.58667,0.55615,-0.58740;
18:56:17.301,-0.58667,0.56079,-0.60034;
18:56:17.311,-0.58252,0.57520,-0.60620;
18:56:17.321,-0.57617,0.56860,-0.61255;
18:56:17.331,-0.57251,0.54321,-0.62646;
18:56:17.341,-0.56982,0.51929,-0.63452;
18:56:17.351,-0.56250,0.50903,-0.64478;
18:56:17.361,-0.55957,0.51465,-0.64331;
18:56:17.371,-0.56201,0.52563,-0.63208;
18:56:17.381,-0.56763,0.53369,-0.62012;
18:56:17.391,-0.57837,0.53418,-0.61841;
18:56:17.401,-0.58813,0.53003,-0.63110;
18:56:17.411,-0.57520,0.50269,-0.64160;
18:56:17.421,-0.57617,0.51563,-0.62695;
18:56:17.431,-0.57764,0.54199,-0.61597;
18:56:17.441,-0.58301,0.54785,-0.62036;
18:56:17.451,-0.58496,0.53271,-0.62891;
18:56:17.461,-0.58813,0.51440,-0.61841;
18:56:17.471,-0.59644,0.53564,-0.58594;
18:56:17.481,-0.62036,0.49854,-0.59888;
18:56:17.491,-0.63159,0.50171,-0.59717;
18:56:17.501,-0.62476,0.57031,-0.58252;
18:56:17.511,-0.61377,0.68066,-0.55688;
18:56:17.521,-0.61743,0.62939,-0.50684;
18:56:17.531,-0.63159,0.52002,-0.43701;
18:56:17.541,-0.69043,0.42480,-0.57666;
18:56:17.551,-0.71240,0.40234,-0.72363;
18:56:17.561,-0.56958,0.64551,-0.47021;
18:56:17.571,-0.60229,0.57690,-0.53687;
18:56:17.581,-0.60742,0.48389,-0.61768;
18:56:17.591,-0.57251,0.46509,-0.68311;
18:56:17.601,-0.54346,0.50928,-0.64526;
18:56:17.611,-0.54785,0.54346,-0.64624;
18:56:17.621,-0.56274,0.53369,-0.63062;
18:56:17.631,-0.57153,0.50293,-0.64502;
18:56:17.641,-0.57349,0.48804,-0.66138;
18:56:17.651,-0.58057,0.49146,-0.66992;
18:56:17.661,-0.58203,0.51245,-0.65234;
18:56:17.671,-0.57959,0.53076,-0.61865;
18:56:17.681,-0.58057,0.54980,-0.57397;
18:56:17.691,-0.58472,0.56421,-0.53247;
18:56:17.701,-0.59644,0.57690,-0.52979;
18:56:17.711,-0.60449,0.58081,-0.55811;
18:56:17.721,-0.59619,0.56519,-0.57642;
18:56:17.731,-0.58228,0.55835,-0.58765;
18:56:17.741,-0.57397,0.55908,-0.59814;
18:56:17.751,-0.56812,0.56299,-0.61255;
18:56:17.761,-0.55127,0.56665,-0.63330;
18:56:17.771,-0.53369,0.57324,-0.64160;
18:56:17.781,-0.51807,0.58081,-0.60791;
18:56:17.791,-0.51660,0.56812,-0.55933;
18:56:17.801,-0.52271,0.56641,-0.52881;
18:56:17.811,-0.52515,0.59985,-0.50464;
18:56:17.821,-0.52563,0.63379,-0.48340;
18:56:17.831,-0.51880,0.64233,-0.47412;
18:56:17.841,-0.51099,0.64038,-0.49976;
18:56:17.851,-0.57861,0.56030,-0.69678;
18:56:17.861,-0.69727,0.37012,-0.85132;
18:56:17.871,-0.72559,0.22705,-0.77466;
18:56:17.881,-0.72070,0.24683,-0.71094;
18:56:17.891,-0.70874,0.40918,-0.65405;
18:56:17.901,-0.69092,0.58472,-0.53955;
18:56:17.911,-0.70459,0.63403,-0.48828;
18:56:17.921,-0.69751,0.56934,-0.49512;
18:56:17.931,-0.67114,0.50293,-0.52026;
18:56:17.941,-0.64941,0.48926,-0.56519;
18:56:17.951,-0.63159,0.49268,-0.60474;
18:56:17.961,-0.60767,0.49438,-0.63403;
18:56:17.971,-0.56616,0.47827,-0.68481;
18:56:17.981,-0.55908,0.46094,-0.70337;
18:56:17.991,-0.54468,0.45947,-0.70313;
18:56:18.001,-0.53638,0.50171,-0.68188;
18:56:18.011,-0.53833,0.56372,-0.63794;
18:56:18.021,-0.55176,0.58691,-0.60181;
18:56:18.031,-0.56860,0.56934,-0.58472;
18:56:18.041,-0.59033,0.53467,-0.59131;
18:56:18.051,-0.61523,0.50391,-0.61108;
18:56:18.061,-0.62378,0.49585,-0.61255;
18:56:18.071,-0.62598,0.51172,-0.59497;
18:56:18.081,-0.63135,0.52905,-0.58545;
18:56:18.091,-0.63232,0.52954,-0.58789;
18:56:18.101,-0.62549,0.52124,-0.59985;
18:56:18.111,-0.60986,0.51465,-0.61206;
18:56:18.121,-0.58887,0.52148,-0.61646;
18:56:18.131,-0.57104,0.53369,-0.61987;
18:56:18.141,-0.55786,0.53687,-0.62695;
18:56:18.151,-0.55347,0.52759,-0.63501;
18:56:18.161,-0.55957,0.51611,-0.64404;
18:56:18.171,-0.57129,0.50293,-0.65332;
18:56:18.181,-0.58081,0.49658,-0.64502;
18:56:18.191,-0.58984,0.50586,-0.62500;
18:56:18.201,-0.60107,0.51831,-0.61279;
18:56:18.211,-0.60791,0.52075,-0.60132;
18:56:18.221,-0.61572,0.50977,-0.60327;
18:56:18.231,-0.62354,0.49780,-0.61572;
18:56:18.241,-0.62158,0.49048,-0.62915;
18:56:18.251,-0.61841,0.49072,-0.63550;
18:56:18.261,-0.61719,0.49463,-0.63354;
18:56:18.271,-0.60913,0.49927,-0.63135;
18:56:18.281,-0.60376,0.49561,-0.64233;
18:56:18.291,-0.59668,0.47803,-0.66553;
18:56:18.301,-0.59229,0.46606,-0.66602;
18:56:18.311,-0.59424,0.47607,-0.65674;
18:56:18.321,-0.59009,0.53687,-0.63672;
18:56:18.331,-0.57397,0.54688,-0.63062;
18:56:18.341,-0.57275,0.54053,-0.60986;
18:56:18.351,-0.62549,0.53003,-0.54126;
18:56:18.361,-0.62720,0.43188,-0.70776;
18:56:18.371,-0.57007,0.50000,-0.64355;
18:56:18.381,-0.57031,0.53955,-0.58301;
18:56:18.391,-0.59375,0.53955,-0.59912;
18:56:18.401,-0.61255,0.50049,-0.63013;
18:56:18.411,-0.58765,0.48804,-0.63574;
18:56:18.421,-0.58423,0.49658,-0.63257;
18:56:18.431,-0.59204,0.49683,-0.62109;
18:56:18.441,-0.59814,0.50000,-0.61987;
18:56:18.451,-0.60254,0.49829,-0.62842;
18:56:18.461,-0.59570,0.49194,-0.63452;
18:56:18.471,-0.59375,0.49048,-0.63281;
18:56:18.481,-0.58691,0.49414,-0.63843;
18:56:18.491,-0.58984,0.49683,-0.64014;
18:56:18.501,-0.59058,0.49878,-0.63647;
18:56:18.511,-0.58789,0.50293,-0.63330;
18:56:18.521,-0.59106,0.50562,-0.62866;
18:56:18.531,-0.58496,0.50488,-0.62817;
18:56:18.541,-0.57983,0.50708,-0.62500;
18:56:18.551,-0.57690,0.51221,-0.62573;
18:56:18.561,-0.57007,0.51270,-0.62598;
18:56:18.571,-0.56689,0.50879,-0.62793;
18:56:18.581,-0.56982,0.51147,-0.62402;
18:56:18.591,-0.57202,0.51660,-0.62036;
18:56:18.601,-0.57422,0.51270,-0.62866;
18:56:18.611,-0.57642,0.50659,-0.63599;
18:56:18.621,-0.57983,0.50073,-0.63574;
18:56:18.631,-0.58228,0.50000,-0.63940;
18:56:18.641,-0.58521,0.50049,-0.64014;
18:56:18.651,-0.58618,0.49829,-0.64697;
18:56:18.661,-0.58618,0.49536,-0.65283;
18:56:18.671,-0.59033,0.48926,-0.64990;
18:56:18.681,-0.59839,0.48730,-0.64941;
18:56:18.691,-0.61182,0.48340,-0.64966;
18:56:18.701,-0.61890,0.47363,-0.65503;
18:56:18.711,-0.62402,0.46069,-0.66528;
18:56:18.721,-0.61914,0.46460,-0.66724;
18:56:18.731,-0.60767,0.48145,-0.65381;
18:56:18.741,-0.60132,0.49707,-0.63940;
18:56:18.751,-0.59448,0.50317,-0.62524;
18:56:18.761,-0.59106,0.49927,-0.62158;
18:56:18.771,-0.59106,0.49243,-0.62866;
18:56:18.781,-0.58862,0.48730,-0.63843;
18:56:18.791,-0.58765,0.48486,-0.64648;
18:56:18.801,-0.59106,0.48193,-0.64746;
18:56:18.811,-0.59180,0.48755,-0.64526;
18:56:18.821,-0.59839,0.49243,-0.63892;
18:56:18.831,-0.60303,0.49243,-0.63843;
18:56:18.841,-0.60205,0.49561,-0.63525;
18:56:18.851,-0.60522,0.49585,-0.63232;
18:56:18.861,-0.60376,0.49292,-0.63989;
18:56:18.871,-0.59521,0.48779,-0.64893;
18:56:18.881,-0.58765,0.48438,-0.65576;
18:56:18.891,-0.58398,0.49023,-0.65356;
18:56:18.901,-0.58081,0.49951,-0.64478;
18:56:18.911,-0.58203,0.49829,-0.64038;
18:56:18.921,-0.58838,0.49048,-0.64722;
18:56:18.931,-0.58789,0.48901,-0.65381;
18:56:18.941,-0.58545,0.49219,-0.65967;
18:56:18.951,-0.58374,0.49634,-0.66357;
18:56:18.961,-0.57910,0.50049,-0.65552;
18:56:18.971,-0.58105,0.50781,-0.64038;
18:56:18.981,-0.59229,0.50586,-0.63184;
18:56:18.991,-0.59741,0.49292,-0.64185;
18:56:19.001,-0.59595,0.47656,-0.65771;
18:56:19.011,-0.59082,0.47583,-0.66284;
18:56:19.021,-0.58154,0.49194,-0.65723;
18:56:19.031,-0.57544,0.51221,-0.65063;
18:56:19.041,-0.56860,0.52515,-0.64258;
18:56:19.051,-0.56250,0.52783,-0.63452;
18:56:19.061,-0.56250,0.52710,-0.62866;
18:56:19.071,-0.56665,0.51147,-0.63916;
18:56:19.081,-0.57397,0.49170,-0.65894;
18:56:19.091,-0.57935,0.48633,-0.65283;
18:56:19.101,-0.58643,0.49487,-0.63770;
18:56:19.111,-0.59351,0.50293,-0.63989;
18:56:19.121,-0.59106,0.49536,-0.65308;
18:56:19.131,-0.58789,0.49292,-0.64893;
18:56:19.141,-0.59326,0.49878,-0.62695;
18:56:19.151,-0.60571,0.50488,-0.61621;
18:56:19.161,-0.61279,0.50830,-0.60791;
18:56:19.171,-0.61816,0.50684,-0.60059;
18:56:19.181,-0.63086,0.49927,-0.60327;
18:56:19.191,-0.63574,0.48291,-0.61353;
18:56:19.201,-0.63159,0.47974,-0.61963;
18:56:19.211,-0.62476,0.48804,-0.61914;
18:56:19.221,-0.61670,0.50244,-0.60938;
18:56:19.231,-0.58936,0.51245,-0.62305;
18:56:19.241,-0.58447,0.49951,-0.62939;
18:56:19.251,-0.59912,0.51001,-0.62109;
18:56:19.261,-0.61035,0.48950,-0.63257;
18:56:19.271,-0.60034,0.49756,-0.64014;
18:56:19.281,-0.59814,0.50024,-0.63501;
18:56:19.291,-0.59985,0.49854,-0.63770;
18:56:19.301,-0.59351,0.49487,-0.64746;
18:56:19.311,-0.58350,0.49341,-0.65356;
18:56:19.321,-0.57666,0.49536,-0.65698;
18:56:19.331,-0.57202,0.49854,-0.65869;
18:56:19.341,-0.57104,0.49902,-0.66577;
18:56:19.351,-0.56958,0.49463,-0.66992;
18:56:19.361,-0.57056,0.49121,-0.66284;
18:56:19.371,-0.57300,0.49780,-0.64917;
18:56:19.381,-0.57910,0.50488,-0.64063;
18:56:19.391,-0.58667,0.49780,-0.64551;
18:56:19.401,-0.58789,0.48730,-0.65381;
18:56:19.411,-0.59106,0.48608,-0.65649;
18:56:19.421,-0.59399,0.48608,-0.65820;
18:56:19.431,-0.59473,0.48535,-0.65381;
18:56:19.441,-0.59521,0.49292,-0.63989;
18:56:19.451,-0.59473,0.50220,-0.62573;
18:56:19.461,-0.59839,0.50391,-0.62329;
18:56:19.471,-0.59424,0.49805,-0.63696;
18:56:19.481,-0.58984,0.49194,-0.64966;
18:56:19.491,-0.58740,0.49609,-0.64355;
18:56:19.501,-0.58130,0.50317,-0.63428;
18:56:19.511,-0.58423,0.50610,-0.62744;
18:56:19.521,-0.59302,0.50244,-0.62769;
18:56:19.531,-0.59985,0.49268,-0.63550;
18:56:19.541,-0.59399,0.48511,-0.64746;
18:56:19.551,-0.58569,0.48755,-0.65430;
18:56:19.561,-0.58325,0.49927,-0.64868;
18:56:19.571,-0.57861,0.50806,-0.64185;
18:56:19.581,-0.57983,0.50269,-0.63354;
18:56:19.591,-0.57983,0.49536,-0.63452;
18:56:19.601,-0.58423,0.48901,-0.63892;
18:56:19.611,-0.59351,0.48438,-0.64014;
18:56:19.621,-0.60327,0.48462,-0.64478;
18:56:19.631,-0.60815,0.49219,-0.64258;
18:56:19.641,-0.61255,0.50122,-0.63379;
18:56:19.651,-0.61182,0.49634,-0.62915;
18:56:19.661,-0.60864,0.48828,-0.63501;
18:56:19.671,-0.60449,0.48218,-0.65015;
18:56:19.681,-0.59180,0.48706,-0.65479;
18:56:19.691,-0.58276,0.49585,-0.65210;
18:56:19.701,-0.57471,0.50708,-0.64746;
18:56:19.711,-0.57178,0.51221,-0.63599;
18:56:19.721,-0.57397,0.49951,-0.63892;
18:56:19.731,-0.57715,0.48657,-0.65283;
18:56:19.741,-0.57886,0.48511,-0.66333;
18:56:19.751,-0.57910,0.49194,-0.66406;
18:56:19.761,-0.57788,0.49756,-0.65918;
18:56:19.771,-0.57764,0.50073,-0.64941;
18:56:19.781,-0.58472,0.50342,-0.63379;
18:56:19.791,-0.59595,0.49805,-0.63159;
18:56:19.801,-0.60962,0.48511,-0.63550;
18:56:19.811,-0.61670,0.47681,-0.64160;
18:56:19.821,-0.61499,0.47998,-0.64233;
18:56:19.831,-0.60620,0.48462,-0.64355;
18:56:19.841,-0.59497,0.49316,-0.64502;
18:56:19.851,-0.58789,0.49951,-0.64453;
18:56:19.861,-0.58154,0.49854,-0.64819;
18:56:19.871,-0.57690,0.49756,-0.64844;
18:56:19.881,-0.57031,0.49927,-0.64502;
18:56:19.891,-0.57324,0.50024,-0.64551;
18:56:19.901,-0.57886,0.49756,-0.65210;
18:56:19.911,-0.58105,0.49170,-0.65552;
18:56:19.921,-0.58545,0.48926,-0.65381;
18:56:19.931,-0.58887,0.49512,-0.64673;
18:56:19.941,-0.59326,0.49609,-0.64160;
18:56:19.951,-0.59375,0.49316,-0.64282;
18:56:19.961,-0.59717,0.49316,-0.64209;
18:56:19.971,-0.59570,0.49365,-0.64551;
18:56:19.981,-0.59351,0.49316,-0.64307;
18:56:19.991,-0.59351,0.49390,-0.64063;
18:56:20.001,-0.59546,0.48853,-0.65259;
18:56:20.011,-0.59741,0.48120,-0.65918;
18:56:20.021,-0.58960,0.48120,-0.66260;
18:56:20.031,-0.57861,0.49536,-0.66016;
18:56:20.041,-0.56421,0.51563,-0.65552;
18:56:20.051,-0.55811,0.52002,-0.65698;
18:56:20.061,-0.55713,0.51318,-0.65698;
18:56:20.071,-0.55615,0.50659,-0.65503;
18:56:20.081,-0.56201,0.50244,-0.65137;
18:56:20.091,-0.57739,0.49438,-0.64551;
18:56:20.101,-0.59473,0.48584,-0.63965;
18:56:20.111,-0.60669,0.49292,-0.61401;
18:56:20.121,-0.61523,0.50732,-0.60718;
18:56:20.131,-0.62036,0.50293,-0.60474;
18:56:20.141,-0.61792,0.48950,-0.61938;
18:56:20.151,-0.59741,0.49902,-0.62109;
18:56:20.161,-0.59082,0.50562,-0.61914;
18:56:20.171,-0.59399,0.50269,-0.62817;
18:56:20.181,-0.59229,0.49268,-0.64160;
18:56:20.191,-0.58521,0.48999,-0.64526;
18:56:20.201,-0.58081,0.51074,-0.63843;
18:56:20.211,-0.57886,0.53027,-0.63281;
18:56:20.221,-0.58472,0.52100,-0.62891;
18:56:20.231,-0.59277,0.49438,-0.63330;
18:56:20.241,-0.59912,0.48340,-0.63013;
18:56:20.251,-0.60474,0.48804,-0.62915;
18:56:20.261,-0.60815,0.49316,-0.63135;
18:56:20.271,-0.59937,0.50366,-0.63696;
18:56:20.281,-0.58691,0.51611,-0.64160;
18:56:20.291,-0.57690,0.52368,-0.64160;
18:56:20.301,-0.56738,0.51538,-0.64868;
18:56:20.311,-0.56104,0.50830,-0.65503;
18:56:20.321,-0.56592,0.50220,-0.66479;
18:56:20.331,-0.58154,0.49097,-0.66968;
18:56:20.341,-0.58936,0.48340,-0.66064;
