time,acc_x,acc_y,acc_z
18:56:21.470,0.20972,-0.04395,-0.18628;
18:56:21.480,0.16040,-0.00146,-0.15186;
18:56:21.490,0.07617,0.11768,-0.09424;
18:56:21.500,0.03687,0.15186,0.03882;
18:56:21.510,-0.00098,0.16260,0.18750;
18:56:21.520,-0.00415,0.24854,0.22363;
18:56:21.530,0.04834,0.35522,0.22729;
18:56:21.540,0.12402,0.43237,0.18262;
18:56:21.550,0.14990,0.42041,0.11694;
18:56:21.560,0.12451,0.37061,0.13867;
18:56:21.570,0.09863,0.39307,0.20313;
18:56:21.580,0.08472,0.41577,0.33350;
18:56:21.590,0.10693,0.51196,0.45435;
18:56:21.600,0.13135,0.59155,0.63281;
18:56:21.610,0.13403,0.65918,0.77222;
18:56:21.620,0.20630,1.35547,0.50293;
18:56:21.630,0.17700,1.45801,0.41846;
18:56:21.640,0.34521,1.60205,-0.10449;
18:56:21.650,0.25635,1.55396,-0.23145;
18:56:21.660,0.24902,1.47583,-0.17920;
18:56:21.670,0.27539,1.35913,-0.11816;
18:56:21.680,0.32446,1.37476,-0.15405;
18:56:21.690,0.35767,1.58423,-0.23804;
18:56:21.700,0.36792,1.43774,-0.27661;
18:56:21.710,0.28857,1.29761,-0.22534;
18:56:21.720,0.14795,1.31934,-0.09277;
18:56:21.730,0.03076,1.04590,0.15625;
18:56:21.740,-0.05322,0.64771,0.43384;
18:56:21.750,0.04028,1.30054,-0.21655;
18:56:21.760,0.10083,1.00684,-0.25464;
18:56:21.770,0.10010,0.67065,-0.08203;
18:56:21.780,0.06934,0.71875,0.35767;
18:56:21.790,0.30176,0.80542,0.47290;
18:56:21.800,0.36670,0.85889,0.44360;
18:56:21.810,0.40649,0.85571,0.33594;
18:56:21.820,0.29517,0.72998,0.46509;
18:56:21.830,0.61353,0.84204,0.37646;
18:56:21.840,0.59961,0.65088,0.34521;
18:56:21.850,0.55396,0.55322,0.30127;
18:56:21.860,0.50854,0.54858,0.28003;
18:56:21.870,0.49878,0.65015,0.32983;
18:56:21.880,0.52930,0.67554,0.44116;
18:56:21.890,0.55200,0.69312,0.51196;
18:56:21.900,0.58960,0.72583,0.51074;
18:56:21.910,0.62842,0.71558,0.45581;
18:56:21.920,0.62720,0.61279,0.37769;
18:56:21.930,0.60693,0.49731,0.33838;
18:56:21.940,0.60669,0.45508,0.33179;
18:56:21.950,0.63623,0.59082,0.23438;
18:56:21.960,0.69531,0.37769,0.46729;
18:56:21.970,0.71533,0.43164,0.48291;
18:56:21.980,0.78076,0.45288,0.56201;
18:56:21.990,0.94312,0.65430,0.51807;
18:56:22.000,0.95947,0.62549,0.48169;
18:56:22.010,0.94189,0.56323,0.47119;
18:56:22.020,0.93311,0.47583,0.53149;
18:56:22.030,0.99927,0.55591,0.63379;
18:56:22.040,0.92993,0.49487,0.53003;
18:56:22.050,0.91406,0.49609,0.48682;
18:56:22.060,0.91553,0.47852,0.44531;
18:56:22.070,0.90088,0.46240,0.40503;
18:56:22.080,0.88062,0.43237,0.41699;
18:56:22.090,0.87109,0.37646,0.51147;
18:56:22.100,0.86133,0.34766,0.66724;
18:56:22.110,0.86255,0.39331,0.81958;
18:56:22.120,0.87891,0.41382,0.91870;
18:56:22.130,0.89209,0.39575,0.92920;
18:56:22.140,0.88940,0.40015,0.82080;
18:56:22.150,0.89087,0.41357,0.65186;
18:56:22.160,0.93408,0.36450,0.54126;
18:56:22.170,0.95166,0.30225,0.58472;
18:56:22.180,0.92871,0.27124,0.66479;
18:56:22.190,0.91162,0.27441,0.75854;
18:56:22.200,0.89941,0.30347,0.78833;
18:56:22.210,0.87183,0.39209,0.73169;
18:56:22.220,0.83325,0.45410,0.66553;
18:56:22.230,0.79224,0.42188,0.60620;
18:56:22.240,0.77979,0.36890,0.49878;
18:56:22.250,0.77612,0.29932,0.48730;
18:56:22.260,0.78442,0.28735,0.52148;
18:56:22.270,0.78906,0.31836,0.53760;
18:56:22.280,0.78931,0.33716,0.61548;
18:56:22.290,0.78223,0.26343,0.78320;
18:56:22.300,0.78784,0.23608,0.86353;
18:56:22.310,0.82690,0.23535,0.84033;
18:56:22.320,0.82642,0.25928,0.72095;
18:56:22.330,0.82788,0.30298,0.60962;
18:56:22.340,0.81763,0.32275,0.58496;
18:56:22.350,0.84497,0.32300,0.62817;
18:56:22.360,0.84595,0.18677,0.77515;
18:56:22.370,0.83618,0.13135,0.81348;
18:56:22.380,0.89307,0.13770,0.85083;
18:56:22.390,0.86279,0.13208,0.90039;
18:56:22.400,0.85303,-0.06445,0.83423;
18:56:22.410,0.83862,-0.02271,0.77881;
18:56:22.420,0.75830,-0.01294,0.75439;
18:56:22.430,0.66650,0.07837,0.65405;
18:56:22.440,0.68945,0.29761,0.51538;
18:56:22.450,0.67847,0.14990,0.65405;
18:56:22.460,0.66553,0.21777,0.65625;
18:56:22.470,0.67334,0.28784,0.63770;
18:56:22.480,0.62402,0.23560,0.67114;
18:56:22.490,0.58691,0.26001,0.72559;
18:56:22.500,0.88184,0.34009,0.31470;
18:56:22.510,0.76318,-0.24683,1.21240;
18:56:22.520,0.57544,-0.05127,1.16895;
18:56:22.530,0.42212,-0.09351,1.07520;
18:56:22.540,0.34863,0.11499,0.76270;
18:56:22.550,0.50269,0.57178,0.23486;
18:56:22.560,0.69263,-0.02344,0.67212;
18:56:22.570,1.00415,0.47705,0.41748;
18:56:22.580,1.03979,0.63135,0.29492;
18:56:22.590,1.14697,0.48389,0.37744;
18:56:22.600,1.04834,0.25659,0.67725;
18:56:22.610,0.98047,0.12256,0.83008;
18:56:22.620,0.95752,0.05811,0.83618;
18:56:22.630,1.00073,0.06738,0.77173;
18:56:22.640,0.96533,0.05664,0.79907;
18:56:22.650,0.84399,0.00488,0.86108;
18:56:22.660,0.76392,-0.04590,0.84351;
18:56:22.670,0.72656,-0.05371,0.74048;
18:56:22.680,0.54590,0.11621,0.86108;
18:56:22.690,0.95679,0.33813,1.25928;
18:56:22.700,1.14331,0.47485,0.60547;
18:56:22.710,0.91138,-0.03027,0.50171;
18:56:22.720,0.67944,-0.35229,0.48071;
18:56:22.730,0.78418,0.31567,0.28516;
18:56:22.740,0.82813,0.33887,0.06812;
18:56:22.750,0.87720,0.55029,-0.15088;
18:56:22.760,0.81226,0.53442,-0.18042;
18:56:22.770,0.75635,0.44873,-0.01978;
18:56:22.780,0.76807,0.43188,0.13208;
18:56:22.790,0.77319,0.37891,0.20947;
18:56:22.800,0.72998,0.33130,0.30078;
18:56:22.810,0.66870,0.30054,0.43433;
18:56:22.820,0.74170,0.27368,0.47363;
18:56:22.830,1.14600,-0.02319,0.35571;
18:56:22.840,1.37085,0.28101,0.97217;
18:56:22.850,1.33301,0.45850,0.81958;
18:56:22.860,1.20093,0.07983,0.49487;
18:56:22.870,1.20313,-0.12109,0.45264;
18:56:22.880,1.17310,-0.00732,0.44556;
18:56:22.890,1.13745,0.24854,0.44653;
18:56:22.900,1.16235,0.39136,0.66284;
18:56:22.910,1.22363,0.05249,0.95996;
18:56:22.920,1.15112,-0.12329,1.08301;
18:56:22.930,1.06860,0.15210,0.95776;
18:56:22.940,1.04175,0.25562,0.85767;
18:56:22.950,0.92603,0.05811,0.72412;
18:56:22.960,0.83423,0.06104,0.52808;
18:56:22.970,0.71924,0.21240,0.33838;
18:56:22.980,0.61670,0.35742,0.28369;
18:56:22.990,0.56128,0.42773,0.23242;
18:56:23.000,0.55273,0.43188,0.13794;
18:56:23.010,0.53345,0.49561,-0.00708;
18:56:23.020,0.52832,0.57178,-0.07788;
18:56:23.030,0.55981,0.54663,-0.06470;
18:56:23.040,0.53906,0.62622,0.07910;
18:56:23.050,0.48706,0.83936,0.32935;
18:56:23.060,0.55688,0.78345,0.64941;
18:56:23.070,0.59546,0.64453,0.59106;
18:56:23.080,0.64771,0.62769,0.53735;
18:56:23.090,0.64380,0.88306,0.70435;
18:56:23.100,0.76514,0.92944,0.70410;
18:56:23.110,0.80151,0.89551,0.43481;
18:56:23.120,0.80127,0.91968,0.29663;
18:56:23.130,0.76685,0.87891,0.40381;
18:56:23.140,0.69214,0.89014,0.56274;
18:56:23.150,0.65967,1.00903,0.60962;
18:56:23.160,0.69336,1.01270,0.50708;
18:56:23.170,0.70386,0.86694,0.32568;
18:56:23.180,0.67529,0.77222,0.23169;
18:56:23.190,0.65503,0.71655,0.28760;
18:56:23.200,0.74097,0.17896,0.38574;
18:56:23.210,0.78979,0.12720,0.07422;
18:56:23.220,0.82007,0.45972,0.10815;
18:56:23.230,0.80249,0.57031,0.35791;
18:56:23.240,0.94312,0.38599,0.70898;
18:56:23.250,1.19775,0.12012,0.24609;
18:56:23.260,1.21948,0.41895,0.12231;
18:56:23.270,1.09082,0.28174,0.18066;
18:56:23.280,1.01514,0.13232,0.32886;
18:56:23.290,1.01172,0.36670,0.42236;
18:56:23.300,1.00659,0.51880,0.39600;
18:56:23.310,1.03540,0.42871,0.24219;
18:56:23.320,1.08057,0.52808,0.13208;
18:56:23.330,1.09033,0.72241,0.10474;
18:56:23.340,1.04004,0.59180,0.01001;
18:56:23.350,0.90820,0.16406,0.09082;
18:56:23.360,1.01147,0.18628,-0.39819;
18:56:23.370,0.98047,-0.02881,-0.21021;
18:56:23.380,0.98535,0.28857,-0.03882;
18:56:23.390,1.02808,0.51001,-0.04175;
18:56:23.400,1.09961,0.50293,-0.10620;
18:56:23.410,1.15088,0.53638,-0.21167;
18:56:23.420,1.16895,0.49365,-0.32007;
18:56:23.430,1.06689,0.58228,-0.27271;
18:56:23.440,0.97583,0.54175,-0.22607;
18:56:23.450,0.88110,0.51270,-0.20825;
18:56:23.460,0.79834,0.88745,-0.13086;
18:56:23.470,0.75757,0.87183,-0.14136;
18:56:23.480,0.67456,0.86401,-0.02979;
18:56:23.490,0.67920,0.76855,0.03906;
18:56:23.500,0.67920,0.54346,0.06128;
18:56:23.510,0.55664,0.42261,-0.26343;
18:56:23.520,0.61621,0.80640,-0.38403;
18:56:23.530,0.54077,0.55518,-0.14063;
18:56:23.540,0.78564,0.45630,-0.30078;
18:56:23.550,0.93555,0.38623,-0.24487;
18:56:23.560,0.91602,0.53149,-0.11035;
18:56:23.570,0.92163,0.62720,0.00073;
18:56:23.580,0.89746,0.93896,0.22095;
18:56:23.590,0.93164,0.82349,0.17749;
18:56:23.600,0.77783,0.78613,0.65527;
18:56:23.610,1.07935,0.40479,0.10107;
18:56:23.620,1.14478,0.55347,-0.00439;
18:56:23.630,1.12451,0.56421,-0.07056;
18:56:23.640,1.07227,0.74536,-0.03882;
18:56:23.650,0.95557,0.88843,0.09326;
18:56:23.660,0.84595,0.92383,0.16797;
18:56:23.670,0.77783,0.96558,0.20166;
18:56:23.680,0.75000,0.98315,0.18457;
18:56:23.690,0.76196,0.91602,0.06104;
18:56:23.700,0.76147,0.78271,-0.04810;
18:56:23.710,0.74097,0.71289,-0.06177;
18:56:23.720,0.71631,0.84473,-0.04932;
18:56:23.730,0.58813,0.78271,-0.02124;
18:56:23.740,0.54028,0.60620,-0.07275;
18:56:23.750,0.51245,0.65454,-0.11597;
18:56:23.760,0.49097,0.79028,-0.07397;
18:56:23.770,0.46436,0.81445,-0.02417;
18:56:23.780,0.47510,0.77271,-0.03345;
18:56:23.790,0.51294,0.82373,-0.08765;
18:56:23.800,0.51904,0.87769,-0.14111;
18:56:23.810,0.51050,0.86841,-0.09619;
18:56:23.820,0.50439,0.83643,-0.02686;
18:56:23.830,0.52686,0.76953,-0.02954;
18:56:23.840,0.60400,0.76196,-0.03442;
18:56:23.850,0.67969,0.82129,-0.04688;
18:56:23.860,0.75586,0.66406,-0.03735;
18:56:23.870,0.76245,0.60107,-0.09668;
18:56:23.880,0.75098,0.51343,-0.33032;
18:56:23.890,0.75610,0.30518,-0.34424;
18:56:23.900,0.78711,0.38574,-0.33008;
18:56:23.910,0.76147,0.42773,-0.17871;
18:56:23.920,0.75220,0.38599,-0.19873;
18:56:23.930,0.76074,0.44263,-0.34058;
18:56:23.940,0.76855,0.53271,-0.32910;
18:56:23.950,0.80713,0.54126,-0.36182;
18:56:23.960,0.81104,0.51001,-0.46167;
18:56:23.970,0.85352,0.52710,-0.59155;
18:56:23.980,0.80737,0.49609,-0.35864;
18:56:23.990,0.81372,0.48730,-0.35986;
18:56:24.000,0.81567,0.66602,-0.33301;
18:56:24.010,0.74902,0.85571,-0.37134;
18:56:24.020,0.64526,0.88867,-0.40552;
18:56:24.030,0.61035,0.96436,-0.38428;
18:56:24.040,0.60132,0.89136,-0.38062;
18:56:24.050,0.58887,0.71411,-0.36841;
18:56:24.060,0.60474,0.57471,-0.35400;
18:56:24.070,0.64209,0.51367,-0.39160;
18:56:24.080,0.69165,0.74365,-0.41406;
18:56:24.090,0.31641,1.18994,0.22168;
18:56:24.100,0.33643,1.09546,0.30835;
18:56:24.110,0.39673,0.97388,0.29053;
18:56:24.120,0.46167,0.74048,0.20093;
18:56:24.130,0.52808,0.58447,0.05103;
18:56:24.140,0.67114,0.61938,-0.08203;
18:56:24.150,0.70166,0.65186,0.05078;
18:56:24.160,0.72974,0.63550,0.11523;
18:56:24.170,0.74683,0.44238,0.13110;
18:56:24.180,0.78418,0.35156,0.07544;
18:56:24.190,0.85913,0.41553,-0.01587;
18:56:24.200,0.96899,0.43774,-0.07813;
18:56:24.210,0.95654,0.45435,-0.12915;
18:56:24.220,0.89526,0.40625,-0.12671;
18:56:24.230,0.88818,0.41870,-0.16797;
18:56:24.240,0.95459,0.51318,-0.17871;
18:56:24.250,1.00195,0.55298,-0.19556;
18:56:24.260,0.99512,0.47998,-0.15552;
18:56:24.270,0.97119,0.33032,-0.04565;
18:56:24.280,0.95996,0.29614,0.00903;
18:56:24.290,0.97485,0.49219,-0.01563;
18:56:24.300,1.00537,0.65747,-0.04907;
18:56:24.310,1.05103,0.70874,-0.09302;
18:56:24.320,1.12061,0.86035,-0.07690;
18:56:24.330,1.11597,1.00488,-0.08789;
18:56:24.340,1.04175,1.01489,-0.12866;
18:56:24.350,0.91162,0.86401,-0.10913;
18:56:24.360,0.87988,0.77759,-0.03320;
18:56:24.370,0.89624,0.89697,0.00342;
18:56:24.380,0.86670,0.94678,0.03101;
18:56:24.390,0.82202,0.81763,0.08130;
18:56:24.400,0.80518,0.73853,0.14648;
18:56:24.410,0.82251,0.82690,0.02368;
18:56:24.420,0.86768,0.33984,-0.12744;
18:56:24.430,1.07544,0.24219,-0.31519;
18:56:24.440,1.07715,0.65991,-0.15430;
18:56:24.450,0.97046,0.67529,-0.11084;
18:56:24.460,0.85400,0.41260,-0.17285;
18:56:24.470,0.87183,0.36841,-0.11890;
18:56:24.480,0.89404,0.28711,-0.19287;
18:56:24.490,0.89063,0.12012,-0.23218;
18:56:24.500,0.89917,-0.09717,-0.23633;
18:56:24.510,0.90625,-0.26929,-0.19751;
18:56:24.520,0.92456,-0.38428,-0.18823;
18:56:24.530,0.96436,-0.43628,-0.27905;
18:56:24.540,0.93164,0.43774,-0.03247;
18:56:24.550,0.77905,0.82007,0.09912;
18:56:24.560,0.70435,1.02661,-0.09155;
18:56:24.570,0.70850,0.82935,-0.23169;
18:56:24.580,0.77686,0.23438,-0.29028;
18:56:24.590,0.87085,-0.05029,-0.26074;
18:56:24.600,1.02686,-0.25415,-0.28833;
18:56:24.610,1.12329,0.00171,-0.00073;
18:56:24.620,1.16382,-0.01050,0.13550;
18:56:24.630,1.13477,0.07471,0.35254;
18:56:24.640,0.97168,0.59766,0.56201;
18:56:24.650,0.91895,0.57983,0.55103;
18:56:24.660,0.94287,0.19507,0.30688;
18:56:24.670,1.03857,-0.09741,0.15503;
18:56:24.680,1.04346,-0.10449,-0.08740;
18:56:24.690,1.07227,-0.17236,-0.24292;
18:56:24.700,1.08691,-0.03198,-0.11499;
18:56:24.710,1.13354,0.43726,0.24146;
18:56:24.720,1.14282,1.04370,0.25415;
18:56:24.730,1.01465,1.19312,0.04150;
18:56:24.740,0.90063,0.61816,0.07935;
18:56:24.750,0.96875,0.19629,0.49927;
18:56:24.760,1.10840,0.32690,0.66650;
18:56:24.770,1.06030,0.31250,0.73242;
18:56:24.780,1.05688,0.42310,0.85034;
18:56:24.790,1.06250,1.01953,0.64893;
18:56:24.800,0.83960,1.46582,0.58594;
18:56:24.810,0.75513,1.34106,0.49976;
18:56:24.820,0.87549,0.94214,0.33301;
18:56:24.830,0.96753,0.73291,0.29883;
18:56:24.840,1.03320,0.56519,0.13989;
18:56:24.850,1.10352,0.49951,-0.00977;
18:56:24.860,1.08350,0.21875,-0.12109;
18:56:24.870,1.01416,0.31860,-0.10645;
18:56:24.880,0.94214,0.78589,0.01074;
18:56:24.890,0.93286,0.72070,0.00635;
18:56:24.900,1.03052,0.43286,0.04492;
18:56:24.910,1.06274,0.32202,0.02905;
18:56:24.920,1.05444,0.35547,0.01489;
18:56:24.930,1.09155,0.42407,0.04663;
18:56:24.940,1.11841,0.45117,-0.03247;
18:56:24.950,1.10913,0.12231,-0.11353;
18:56:24.960,1.05957,-0.00049,-0.05688;
18:56:24.970,1.00903,0.25854,-0.08472;
18:56:24.980,1.00366,0.48560,0.25903;
18:56:24.990,1.01538,0.52783,0.34375;
18:56:25.000,0.98633,0.66675,0.33862;
18:56:25.010,0.92920,0.77319,0.29077;
18:56:25.020,0.89575,0.79272,0.25293;
18:56:25.030,0.90430,0.78247,0.19873;
18:56:25.040,0.92480,0.70508,0.19873;
18:56:25.050,0.94824,0.59839,0.20215;
18:56:25.060,0.96021,0.52246,0.23706;
18:56:25.070,0.97168,0.51392,0.25293;
18:56:25.080,0.98633,0.51758,0.11450;
18:56:25.090,0.99438,0.55273,0.03735;
18:56:25.100,0.99365,0.61353,0.08447;
18:56:25.110,0.99048,0.56934,0.14624;
18:56:25.120,0.99048,0.45557,0.21387;
18:56:25.130,0.98950,0.35571,0.25293;
18:56:25.140,0.98926,0.28564,0.26318;
18:56:25.150,0.98584,0.25952,0.25342;
18:56:25.160,0.98047,0.23755,0.25049;
18:56:25.170,0.97314,0.20703,0.23755;
18:56:25.180,0.95410,0.16479,0.20044;
18:56:25.190,0.95117,0.22290,0.22266;
18:56:25.200,0.95679,0.32495,0.23120;
18:56:25.210,0.97339,0.37305,0.22314;
18:56:25.220,0.98779,0.35303,0.23364;
18:56:25.230,0.99561,0.29736,0.23828;
18:56:25.240,1.00269,0.23511,0.23682;
18:56:25.250,1.01147,0.17822,0.22363;
18:56:25.260,1.01123,0.13086,0.18311;
18:56:25.270,0.97388,0.02734,0.16382;
18:56:25.280,0.95752,0.12451,0.10815;
18:56:25.290,0.95654,0.14185,0.08545;
18:56:25.300,0.96021,0.14307,0.06445;
18:56:25.310,0.96851,0.14160,0.05640;
18:56:25.320,0.97729,0.14258,0.04883;
18:56:25.330,0.98413,0.13721,0.04565;
18:56:25.340,0.98535,0.12598,0.08545;
18:56:25.350,0.98047,0.17383,0.13281;
18:56:25.360,0.97241,0.25317,0.14063;
18:56:25.370,0.96729,0.25732,0.13062;
18:56:25.380,0.97974,0.18213,0.11401;
18:56:25.390,1.16016,0.16870,0.28003;
18:56:25.400,1.10522,0.06372,0.28052;
18:56:25.410,1.05640,-0.05835,0.28833;
18:56:25.420,1.05518,-0.09131,0.29150;
18:56:25.430,1.06885,-0.03101,0.29883;
18:56:25.440,1.07178,0.03369,0.28955;
18:56:25.450,1.08496,0.00830,0.29370;
18:56:25.460,1.11279,0.01270,0.36548;
18:56:25.470,1.04956,0.16821,0.43213;
18:56:25.480,0.83521,0.32104,0.13696;
18:56:25.490,0.87354,0.36768,0.00220;
18:56:25.500,0.80884,0.37866,0.04297;
18:56:25.510,0.73267,0.26587,0.08325;
18:56:25.520,0.68042,0.14917,0.10083;
18:56:25.530,0.66748,0.12183,0.13403;
18:56:25.540,0.68213,0.18848,0.27539;
18:56:25.550,0.66431,0.33228,0.39307;
18:56:25.560,0.60962,0.47437,0.39282;
18:56:25.570,0.59155,0.61719,0.35669;
18:56:25.580,0.64697,0.70361,0.27661;
18:56:25.590,0.73706,0.63110,0.21948;
18:56:25.600,0.82813,0.49097,0.20142;
18:56:25.610,0.93262,0.35474,0.21069;
18:56:25.620,1.02783,0.19727,0.26636;
18:56:25.630,1.13989,0.58716,0.27002;
18:56:25.640,1.09863,0.52515,0.14282;
18:56:25.650,1.08472,0.45117,0.08423;
18:56:25.660,1.09375,0.54712,0.27368;
18:56:25.670,1.17407,0.74365,0.46777;
18:56:25.680,1.33350,0.59863,0.34570;
18:56:25.690,1.38867,0.20679,0.11084;
18:56:25.700,1.32031,0.09766,0.05640;
18:56:25.710,1.26294,0.18970,0.04199;
18:56:25.720,1.20825,0.25098,0.06445;
18:56:25.730,1.13794,0.22583,0.14722;
18:56:25.740,1.05542,0.19702,0.24048;
18:56:25.750,0.96313,0.24219,0.29126;
18:56:25.760,0.93359,0.36768,0.35010;
18:56:25.770,0.92847,0.30371,0.27368;
18:56:25.780,0.87866,0.36523,0.32373;
18:56:25.790,0.88452,0.40308,0.30103;
18:56:25.800,0.88794,0.25146,0.37500;
18:56:25.810,0.89136,0.13062,0.44312;
18:56:25.820,0.91602,0.08301,0.45020;
18:56:25.830,0.96484,0.04150,0.41333;
18:56:25.840,0.99390,-0.09204,0.37256;
18:56:25.850,1.01172,-0.20166,0.33350;
18:56:25.860,1.05347,-0.24585,0.28735;
18:56:25.870,1.11523,-0.15918,0.33740;
18:56:25.880,1.10620,-0.03003,0.40112;
18:56:25.890,1.06128,-0.01270,0.34473;
18:56:25.900,1.02441,-0.09253,0.30615;
18:56:25.910,0.96777,-0.04907,0.24048;
18:56:25.920,0.92554,-0.03491,0.09521;
18:56:25.930,0.94263,-0.16821,0.03906;
18:56:25.940,0.98584,-0.19507,0.16260;
18:56:25.950,1.01074,-0.09912,0.31519;
18:56:25.960,0.98755,0.09839,0.47095;
18:56:25.970,0.79639,0.24316,0.44043;
18:56:25.980,0.77417,0.14478,0.38232;
18:56:25.990,0.77515,0.10156,0.35693;
18:56:26.000,0.77002,0.10303,0.45410;
18:56:26.010,0.73804,0.08398,0.68018;
18:56:26.020,0.72949,-0.06177,0.73755;
18:56:26.030,0.77563,-0.07129,0.66797;
18:56:26.040,0.84521,-0.05298,0.58081;
18:56:26.050,0.91235,-0.12207,0.29150;
18:56:26.060,1.19531,-0.23730,0.01099;
18:56:26.070,1.09692,0.28931,0.49902;
18:56:26.080,1.03613,0.37646,0.54370;
18:56:26.090,1.01099,0.36499,0.48486;
18:56:26.100,1.01367,0.28833,0.46021;
18:56:26.110,1.03125,0.30518,0.43896;
18:56:26.120,1.05713,0.34790,0.38672;
18:56:26.130,1.09790,0.31201,0.35645;
18:56:26.140,1.13208,0.24561,0.35962;
18:56:26.150,1.14600,0.15552,0.36060;
18:56:26.160,1.14917,0.08862,0.38232;
18:56:26.170,1.14355,0.10059,0.38965;
18:56:26.180,1.13330,0.14893,0.32104;
18:56:26.190,1.14160,0.12598,0.18140;
18:56:26.200,1.13257,0.06714,0.15796;
18:56:26.210,1.10742,0.11133,0.26367;
18:56:26.220,1.10571,0.07129,0.36914;
18:56:26.230,1.11475,-0.01440,0.41235;
18:56:26.240,1.12427,0.06885,0.37378;
18:56:26.250,1.14185,0.10181,0.30005;
18:56:26.260,1.13672,0.01001,0.18555;
18:56:26.270,1.04395,0.01782,0.12402;
18:56:26.280,0.94629,0.10205,0.16284;
18:56:26.290,0.91382,0.14038,0.31079;
18:56:26.300,0.92407,0.26245,0.42627;
18:56:26.310,0.98755,0.32056,0.42822;
18:56:26.320,1.04395,0.11011,0.39258;
18:56:26.330,1.04614,-0.04517,0.29614;
18:56:26.340,1.03223,0.13794,0.18652;
18:56:26.350,0.97339,0.26904,0.37549;
18:56:26.360,0.96338,0.05322,0.38477;
18:56:26.370,1.06787,0.03149,0.12720;
18:56:26.380,1.13184,0.10010,0.11182;
18:56:26.390,1.08252,0.23828,-0.03857;
18:56:26.400,0.96094,0.35596,-0.08228;
18:56:26.410,0.86304,0.42725,0.15918;
18:56:26.420,0.82593,0.36646,0.37598;
18:56:26.430,0.83765,0.32715,0.41577;
18:56:26.440,0.87524,0.44214,0.38208;
18:56:26.450,0.90552,0.43774,0.34912;
18:56:26.460,0.88916,0.23267,0.25415;
18:56:26.470,0.85449,0.11108,0.21240;
18:56:26.480,0.80713,0.03149,0.08789;
18:56:26.490,0.71606,-0.00464,0.18994;
18:56:26.500,0.61646,0.12085,0.35913;
18:56:26.510,0.59619,0.24365,0.37891;
18:56:26.520,0.64990,0.26465,0.40820;
18:56:26.530,0.70728,0.27954,0.47168;
18:56:26.540,0.72461,0.29443,0.48462;
18:56:26.550,0.71826,0.32446,0.45532;
18:56:26.560,0.75098,0.30347,0.42017;
18:56:26.570,0.78857,0.25854,0.40063;
18:56:26.580,0.85327,0.19897,0.39844;
18:56:26.590,0.91357,0.16284,0.38721;
18:56:26.600,0.94556,0.17017,0.36792;
18:56:26.610,0.94385,0.26538,0.34473;
18:56:26.620,0.92065,0.39136,0.28735;
18:56:26.630,0.90625,0.40674,0.23267;
18:56:26.640,0.89575,0.35449,0.19580;
18:56:26.650,0.89868,0.08276,0.24951;
18:56:26.660,0.96997,-0.00049,0.22974;
18:56:26.670,0.98999,-0.00244,0.24390;
18:56:26.680,0.98901,0.00464,0.26318;
18:56:26.690,0.99146,0.04492,0.25317;
18:56:26.700,1.02222,0.10059,0.21802;
18:56:26.710,1.05566,0.11084,0.21606;
18:56:26.720,1.04395,0.06812,0.29834;
18:56:26.730,1.05884,0.09717,0.31909;
18:56:26.740,1.07397,0.12500,0.28882;
18:56:26.750,1.07153,0.16138,0.27051;
18:56:26.760,1.05762,0.24536,0.25098;
18:56:26.770,1.03564,0.28247,0.26489;
18:56:26.780,1.00659,0.26001,0.29517;
18:56:26.790,0.98511,0.26660,0.27441;
18:56:26.800,0.98755,0.30054,0.25732;
18:56:26.810,0.99854,0.30933,0.23364;
18:56:26.820,1.00195,0.28857,0.19971;
18:56:26.830,1.01733,0.26709,0.18896;
18:56:26.840,1.01758,0.26099,0.19287;
18:56:26.850,1.01050,0.26782,0.16870;
18:56:26.860,1.01978,0.25830,0.15723;
18:56:26.870,1.03589,0.22485,0.17163;
18:56:26.880,1.04688,0.19702,0.17163;
18:56:26.890,1.04761,0.19360,0.13818;
18:56:26.900,1.03101,0.18872,0.10840;
18:56:26.910,1.00977,0.16406,0.10571;
18:56:26.920,1.00830,0.15576,0.12109;
18:56:26.930,1.01196,0.21289,0.16455;
18:56:26.940,0.97461,0.22949,0.16357;
18:56:26.950,0.96191,0.23193,0.16309;
18:56:26.960,0.96777,0.21680,0.16772;
18:56:26.970,0.98535,0.19946,0.17676;
18:56:26.980,1.01807,0.16748,0.21265;
18:56:26.990,1.01978,0.14502,0.22681;
18:56:27.000,1.00146,0.15405,0.22949;
18:56:27.010,0.99219,0.16577,0.23706;
18:56:27.020,0.98901,0.17285,0.22803;
18:56:27.030,0.99683,0.17944,0.22168;
18:56:27.040,1.00073,0.18726,0.20215;
18:56:27.050,1.00513,0.18945,0.20459;
18:56:27.060,1.00122,0.17969,0.20215;
18:56:27.070,0.99927,0.18115,0.19287;
18:56:27.080,0.99634,0.20874,0.17236;
18:56:27.090,0.99316,0.16650,0.17261;
18:56:27.100,0.99951,0.12915,0.18457;
18:56:27.110,1.00073,0.17505,0.18213;
18:56:27.120,0.99902,0.16675,0.18506;
18:56:27.130,1.00220,0.15186,0.18994;
18:56:27.140,1.00269,0.16138,0.19580;
18:56:27.150,0.99268,0.15967,0.19629;
18:56:27.160,0.99658,0.16724,0.19556;
18:56:27.170,1.00342,0.17090,0.19116;
18:56:27.180,1.00586,0.16772,0.19067;
18:56:27.190,1.00781,0.16479,0.18677;
18:56:27.200,1.00220,0.16724,0.17676;
18:56:27.210,1.00269,0.19946,0.17651;
18:56:27.220,1.00415,0.14966,0.19116;
18:56:27.230,0.99976,0.19580,0.18872;
18:56:27.240,1.00684,0.15820,0.20020;
18:56:27.250,0.99487,0.16968,0.19336;
18:56:27.260,0.97803,0.20044,0.18457;
18:56:27.270,0.98511,0.18091,0.19409;
18:56:27.280,0.99414,0.14575,0.19409;
18:56:27.290,1.00415,0.13599,0.19556;
18:56:27.300,1.01050,0.12012,0.19849;
18:56:27.310,1.00317,0.14136,0.19556;
18:56:27.320,0.99634,0.14771,0.19946;
18:56:27.330,0.98975,0.14697,0.19580;
18:56:27.340,0.99194,0.15845,0.19873;
18:56:27.350,0.99634,0.16382,0.19360;
18:56:27.360,1.00000,0.16748,0.19702;
18:56:27.370,0.99878,0.17749,0.20361;
18:56:27.380,0.99854,0.18726,0.20532;
18:56:27.390,0.99854,0.17871,0.20337;
18:56:27.400,0.99878,0.16699,0.19531;
18:56:27.410,1.00366,0.16553,0.18506;
18:56:27.420,1.01123,0.18042,0.18140;
18:56:27.430,1.00830,0.17334,0.17822;
18:56:27.440,0.99951,0.15137,0.17847;
18:56:27.450,0.99438,0.15283,0.17822;
18:56:27.460,0.99023,0.15967,0.18311;
18:56:27.470,0.98828,0.16577,0.19336;
18:56:27.480,0.99536,0.17432,0.19946;
18:56:27.490,0.99780,0.15942,0.21265;
18:56:27.500,1.00488,0.16748,0.21582;
18:56:27.510,1.00708,0.22900,0.20215;
18:56:27.520,1.00513,0.18506,0.19092;
18:56:27.530,0.98877,0.17480,0.16797;
18:56:27.540,0.98413,0.17065,0.17969;
18:56:27.550,0.99731,0.18237,0.18359;
18:56:27.560,1.00073,0.17554,0.18066;
18:56:27.570,0.99316,0.17529,0.18335;
18:56:27.580,0.98804,0.17896,0.18628;
18:56:27.590,0.98657,0.17261,0.19043;
18:56:27.600,0.98462,0.18481,0.18433;
18:56:27.610,0.98828,0.17944,0.17896;
18:56:27.620,0.99146,0.17480,0.17578;
18:56:27.630,0.99463,0.18921,0.18262;
18:56:27.640,0.99658,0.18994,0.18701;
18:56:27.650,0.99927,0.17993,0.18774;
18:56:27.660,1.00708,0.17017,0.19971;
18:56:27.670,1.01099,0.18799,0.20483;
18:56:27.680,1.01660,0.23486,0.19800;
18:56:27.690,1.03027,0.24365,0.19067;
18:56:27.700,1.03564,0.20483,0.18604;
18:56:27.710,0.99927,0.13940,0.18140;
18:56:27.720,0.95264,0.15332,0.17383;
18:56:27.730,0.97729,0.16772,0.17871;
18:56:27.740,1.00830,0.15649,0.19165;
18:56:27.750,1.00659,0.21045,0.18530;
18:56:27.760,1.00781,0.22046,0.17505;
18:56:27.770,0.99268,0.19434,0.17188;
18:56:27.780,0.98022,0.18213,0.16992;
18:56:27.790,0.98706,0.18115,0.16943;
18:56:27.800,0.99585,0.18433,0.16821;
18:56:27.810,1.00073,0.18091,0.16699;
18:56:27.820,0.99634,0.17041,0.16431;
18:56:27.830,0.99951,0.14844,0.17944;
18:56:27.840,0.99658,0.17188,0.16748;
18:56:27.850,0.99146,0.17627,0.17188;
18:56:27.860,0.99341,0.16724,0.18286;
18:56:27.870,0.99902,0.16309,0.19019;
18:56:27.880,1.00635,0.17090,0.18457;
18:56:27.890,1.00757,0.18140,0.17578;
18:56:27.900,1.00366,0.17773,0.18066;
18:56:27.910,0.99829,0.16406,0.18652;
18:56:27.920,0.99780,0.15161,0.18311;
18:56:27.930,0.99805,0.15161,0.18066;
18:56:27.940,1.00024,0.15820,0.18677;
18:56:27.950,1.00879,0.15918,0.19385;
18:56:27.960,1.01416,0.16284,0.19971;
18:56:27.970,1.01709,0.16602,0.19458;
18:56:27.980,1.01270,0.15820,0.19775;
18:56:27.990,1.00049,0.15234,0.18628;
18:56:28.000,0.98633,0.16064,0.17676;
18:56:28.010,0.98193,0.17578,0.18359;
18:56:28.020,0.98364,0.17969,0.18091;
18:56:28.030,0.98438,0.17310,0.18506;
18:56:28.040,0.97974,0.16870,0.19092;
18:56:28.050,0.97534,0.16870,0.18677;
18:56:28.060,0.97363,0.16846,0.17847;
18:56:28.070,0.97510,0.16406,0.17700;
18:56:28.080,0.97510,0.15405,0.17554;
18:56:28.090,0.98145,0.14673,0.18311;
18:56:28.100,1.00000,0.15088,0.19385;
18:56:28.110,1.01978,0.15698,0.20313;
18:56:28.120,1.02832,0.16626,0.19189;
18:56:28.130,0.99683,0.16431,0.16919;
18:56:28.140,0.99902,0.15454,0.16870;
18:56:28.150,0.98950,0.16064,0.16650;
18:56:28.160,0.98901,0.19385,0.16455;
18:56:28.170,0.99316,0.21899,0.17065;
18:56:28.180,0.99561,0.22705,0.17407;
18:56:28.190,0.99585,0.22192,0.17920;
18:56:28.200,1.00195,0.21094,0.18042;
18:56:28.210,0.99683,0.19629,0.18579;
18:56:28.220,0.99585,0.19971,0.16797;
18:56:28.230,0.99829,0.20239,0.18018;
18:56:28.240,0.99951,0.18018,0.18799;
18:56:28.250,0.99902,0.16382,0.18140;
18:56:28.260,0.99561,0.16870,0.19800;
18:56:28.270,0.99170,0.17383,0.19092;
18:56:28.280,0.99536,0.16748,0.19092;
18:56:28.290,1.00757,0.17188,0.19751;
18:56:28.300,1.00537,0.17920,0.20581;
18:56:28.310,0.99365,0.18604,0.21362;
18:56:28.320,0.98267,0.18604,0.21509;
18:56:28.330,0.98560,0.16919,0.21021;
18:56:28.340,0.99170,0.15869,0.19385;
18:56:28.350,0.99121,0.15283,0.17603;
18:56:28.360,0.98535,0.14673,0.16406;
18:56:28.370,0.98511,0.15088,0.16235;
18:56:28.380,1.00024,0.15332,0.17163;
18:56:28.390,1.01465,0.15112,0.17456;
18:56:28.400,1.01367,0.13477,0.17896;
18:56:28.410,1.00708,0.11475,0.18701;
18:56:28.420,1.00659,0.12329,0.17993;
18:56:28.430,1.02539,0.14404,0.14746;
18:56:28.440,1.00293,0.11621,0.13428;
18:56:28.450,0.99316,0.13086,0.12744;
18:56:28.460,0.99194,0.14502,0.12036;
18:56:28.470,0.99365,0.15259,0.12402;
18:56:28.480,0.99609,0.15039,0.12158;
18:56:28.490,0.99854,0.14624,0.12573;
18:56:28.500,1.00195,0.15405,0.14746;
18:56:28.510,1.00146,0.16846,0.15967;
18:56:28.520,1.00098,0.16577,0.16553;
18:56:28.530,1.00098,0.15601,0.17163;
18:56:28.540,1.00000,0.16528,0.17285;
18:56:28.550,0.99707,0.17603,0.15991;
18:56:28.560,0.99316,0.16553,0.14819;
18:56:28.570,0.99609,0.14429,0.14600;
18:56:28.580,0.99951,0.12012,0.16406;
18:56:28.590,1.00195,0.09155,0.20044;
18:56:28.600,0.99829,0.08154,0.23877;
18:56:28.610,0.99487,0.10522,0.25610;
18:56:28.620,0.98999,0.14063,0.24731;
18:56:28.630,0.99268,0.15063,0.23633;
18:56:28.640,0.99902,0.12524,0.24756;
18:56:28.650,0.99634,0.05859,0.28174;
18:56:28.660,0.98779,0.01440,0.29932;
18:56:28.670,0.98022,0.01318,0.28369;
18:56:28.680,0.97119,0.02197,0.28442;
18:56:28.690,0.95874,0.02466,0.28857;
18:56:28.700,0.93555,0.00488,0.27856;
18:56:28.710,0.89868,0.03247,0.30542;
18:56:28.720,0.86572,0.12012,0.31055;
18:56:28.730,0.86768,0.17773,0.25928;
18:56:28.740,0.81860,0.18018,0.36279;
18:56:28.750,0.89478,0.17969,0.37793;
18:56:28.760,0.97998,0.13916,0.35693;
18:56:28.770,1.02148,0.09888,0.34448;
18:56:28.780,1.00537,0.22656,0.27344;
18:56:28.790,1.02441,0.37378,0.21582;
18:56:28.800,1.03540,0.43579,0.19116;
18:56:28.810,1.03418,0.36133,0.15332;
18:56:28.820,1.04565,0.27612,0.09448;
18:56:28.830,1.07422,0.15454,0.17944;
18:56:28.840,1.07983,0.06982,0.24658;
18:56:28.850,1.05713,0.11230,0.20337;
18:56:28.860,1.03955,0.17505,0.14014;
18:56:28.870,1.04175,0.19141,0.09595;
18:56:28.880,1.03979,0.16821,0.08569;
18:56:28.890,1.02588,0.13770,0.05640;
18:56:28.900,1.02539,0.10571,0.04199;
18:56:28.910,1.03638,0.02441,0.03735;
18:56:28.920,1.03833,-0.09570,0.02075;
18:56:28.930,1.01953,-0.16406,0.01050;
18:56:28.940,0.99487,-0.12158,0.01074;
18:56:28.950,0.99927,-0.09546,-0.00244;
18:56:28.960,1.03467,-0.14209,0.04834;
18:56:28.970,1.02490,-0.18579,0.16309;
18:56:28.980,0.98267,-0.09375,0.23706;
18:56:28.990,1.01758,-0.09985,0.23096;
18:56:29.000,1.04663,-0.01636,0.26270;
18:56:29.010,1.06323,0.12695,0.29468;
18:56:29.020,1.13818,0.15771,0.35889;
18:56:29.030,1.15161,0.25366,0.40234;
18:56:29.040,1.18652,0.16064,0.46387;
18:56:29.050,1.24292,0.04565,0.46289;
18:56:29.060,1.28979,-0.04175,0.44092;
18:56:29.070,1.31567,0.05542,0.35010;
18:56:29.080,1.32153,0.24170,0.24414;
18:56:29.090,1.31689,0.34668,0.32471;
18:56:29.100,1.32153,0.35742,0.45679;
18:56:29.110,1.32397,0.42212,0.48291;
18:56:29.120,1.36182,0.52026,0.33984;
18:56:29.130,1.42139,0.52930,0.15527;
18:56:29.140,1.37451,0.55908,0.07422;
18:56:29.150,1.25195,0.74365,0.09253;
18:56:29.160,1.17090,0.95728,0.20557;
18:56:29.170,1.12451,0.96924,0.46021;
18:56:29.180,1.06250,0.94165,0.46191;
18:56:29.190,1.01367,0.91797,0.40308;
18:56:29.200,0.95288,0.91138,0.35571;
18:56:29.210,0.89746,0.90918,0.33521;
18:56:29.220,0.82690,0.89233,0.32300;
18:56:29.230,0.75293,0.87964,0.31641;
18:56:29.240,0.71875,0.84985,0.29736;
18:56:29.250,0.70435,0.76660,0.27637;
18:56:29.260,0.70313,0.65747,0.27344;
18:56:29.270,0.68384,0.55249,0.27197;
18:56:29.280,0.64648,0.50635,0.28760;
18:56:29.290,0.61499,0.51489,0.34888;
18:56:29.300,0.60742,0.50024,0.47168;
18:56:29.310,0.59473,0.45288,0.60303;
18:56:29.320,0.58911,0.14551,0.43628;
18:56:29.330,0.57764,0.01685,0.33325;
18:56:29.340,0.57886,0.09717,0.28589;
18:56:29.350,0.61621,0.16211,0.24756;
18:56:29.360,0.65088,0.07739,0.27173;
18:56:29.370,0.67456,-0.01270,0.37305;
18:56:29.380,0.70654,-0.01245,0.43335;
18:56:29.390,0.69458,0.10596,0.45361;
18:56:29.400,0.65332,0.38232,0.45410;
18:56:29.410,0.63965,0.69336,0.40234;
18:56:29.420,0.53296,0.64795,0.28027;
18:56:29.430,0.51416,0.78516,0.40039;
18:56:29.440,0.54785,0.76929,0.38892;
18:56:29.450,0.56714,0.75659,0.36426;
18:56:29.460,0.56519,0.71924,0.32300;
18:56:29.470,0.56152,0.73145,0.27832;
18:56:29.480,0.55737,0.80493,0.24463;
18:56:29.490,0.55225,0.84009,0.23193;
18:56:29.500,0.55347,0.87817,0.24194;
18:56:29.510,0.51855,0.91919,0.38403;
18:56:29.520,0.54272,0.78247,0.34619;
18:56:29.530,0.57349,0.77563,0.26807;
18:56:29.540,0.56738,0.86841,0.25073;
18:56:29.550,0.54932,0.92139,0.22754;
18:56:29.560,0.53687,0.85840,0.22217;
18:56:29.570,0.52661,0.74561,0.24512;
18:56:29.580,0.50952,0.64087,0.26807;
18:56:29.590,0.51147,0.62866,0.26880;
18:56:29.600,0.55347,0.68579,0.25415;
18:56:29.610,0.59961,0.73682,0.23462;
18:56:29.620,0.61353,0.77393,0.20459;
18:56:29.630,0.60645,0.77954,0.16235;
18:56:29.640,0.59961,0.77612,0.13818;
18:56:29.650,0.60498,0.78271,0.14868;
18:56:29.660,0.62354,0.79639,0.14209;
18:56:29.670,0.63794,0.84937,0.13818;
18:56:29.680,0.63135,0.85425,0.18042;
18:56:29.690,0.60791,0.86548,0.19458;
18:56:29.700,0.59351,0.85107,0.19336;
18:56:29.710,0.60181,0.82275,0.19434;
18:56:29.720,0.59595,0.80103,0.20215;
18:56:29.730,0.56982,0.78491,0.20264;
18:56:29.740,0.56201,0.76636,0.19556;
18:56:29.750,0.58936,0.76074,0.19629;
18:56:29.760,0.60645,0.76733,0.21704;
18:56:29.770,0.57568,0.81104,0.23999;
18:56:29.780,0.54053,0.87085,0.22168;
18:56:29.790,0.53320,0.87720,0.17432;
18:56:29.800,0.56299,0.85425,0.14014;
18:56:29.810,0.58008,0.82495,0.17017;
18:56:29.820,0.60767,0.83521,0.20459;
18:56:29.830,0.60986,0.84961,0.23853;
18:56:29.840,0.59619,0.87476,0.23682;
18:56:29.850,0.60986,0.88232,0.18579;
18:56:29.860,0.64697,0.86353,0.09595;
18:56:29.870,0.66187,0.86597,0.05225;
18:56:29.880,0.66211,0.92847,0.07959;
18:56:29.890,0.64624,0.97510,0.12646;
18:56:29.900,0.62549,0.95557,0.15576;
18:56:29.910,0.61328,0.89673,0.14819;
18:56:29.920,0.60767,0.82373,0.13477;
18:56:29.930,0.60620,0.77832,0.12256;
18:56:29.940,0.59766,0.75513,0.11060;
18:56:29.950,0.58228,0.76440,0.11475;
18:56:29.960,0.56421,0.80591,0.13452;
18:56:29.970,0.55322,0.84790,0.17236;
18:56:29.980,0.53931,0.83203,0.20557;
18:56:29.990,0.52417,0.78687,0.24902;
18:56:30.000,0.50977,0.83594,0.27295;
18:56:30.010,0.49609,0.90845,0.25732;
18:56:30.020,0.48901,0.87744,0.25098;
18:56:30.030,0.48853,0.79370,0.26025;
18:56:30.040,0.49536,0.77686,0.25952;
18:56:30.050,0.50220,0.80005,0.22656;
18:56:30.060,0.50903,0.80103,0.19019;
18:56:30.070,0.51416,0.80176,0.16968;
18:56:30.080,0.51343,0.81836,0.16138;
18:56:30.090,0.51270,0.81787,0.15942;
18:56:30.100,0.52075,0.79346,0.16064;
18:56:30.110,0.53052,0.77759,0.21240;
18:56:30.120,0.54272,0.89038,0.20313;
18:56:30.130,0.54102,0.87695,0.18262;
18:56:30.140,0.53247,0.89429,0.17065;
18:56:30.150,0.52637,0.89111,0.16943;
18:56:30.160,0.52197,0.86401,0.17920;
18:56:30.170,0.51904,0.83496,0.18213;
18:56:30.180,0.51392,0.82617,0.17603;
18:56:30.190,0.51172,0.83521,0.16992;
18:56:30.200,0.51831,0.84595,0.15845;
18:56:30.210,0.52393,0.83057,0.14624;
18:56:30.220,0.52832,0.82153,0.13696;
18:56:30.230,0.52881,0.82373,0.13330;
18:56:30.240,0.52808,0.80884,0.14038;
18:56:30.250,0.52710,0.78369,0.15210;
18:56:30.260,0.52002,0.76270,0.16870;
18:56:30.270,0.51196,0.77271,0.19409;
18:56:30.280,0.50928,0.82471,0.21289;
18:56:30.290,0.50854,0.87134,0.21240;
18:56:30.300,0.50879,0.87354,0.21094;
18:56:30.310,0.51074,0.86011,0.21948;
18:56:30.320,0.51196,0.84985,0.21777;
18:56:30.330,0.51245,0.83594,0.21436;
18:56:30.340,0.51270,0.82544,0.20679;
18:56:30.350,0.51147,0.84058,0.20459;
18:56:30.360,0.50781,0.86157,0.20874;
18:56:30.370,0.50610,0.87158,0.20972;
18:56:30.380,0.50439,0.87939,0.20605;
18:56:30.390,0.50537,0.88867,0.19531;
18:56:30.400,0.51099,0.88257,0.18970;
18:56:30.410,0.51392,0.86401,0.18286;
18:56:30.420,0.51172,0.82861,0.15771;
18:56:30.430,0.51440,0.82861,0.17310;
18:56:30.440,0.51318,0.85034,0.17041;
18:56:30.450,0.51221,0.86646,0.16260;
18:56:30.460,0.51660,0.87622,0.16309;
18:56:30.470,0.51636,0.87256,0.17041;
18:56:30.480,0.51514,0.87671,0.18018;
18:56:30.490,0.51440,0.88257,0.18213;
18:56:30.500,0.51221,0.88037,0.18530;
18:56:30.510,0.50610,0.86182,0.19312;
18:56:30.520,0.50073,0.84375,0.18530;
18:56:30.530,0.50024,0.84106,0.18481;
18:56:30.540,0.50049,0.85352,0.19116;
18:56:30.550,0.50049,0.87134,0.19556;
18:56:30.560,0.50195,0.87427,0.19409;
18:56:30.570,0.50171,0.85669,0.18799;
18:56:30.580,0.50195,0.84814,0.17603;
18:56:30.590,0.50366,0.86011,0.16138;
18:56:30.600,0.50879,0.87427,0.15552;
18:56:30.610,0.51318,0.86768,0.15723;
18:56:30.620,0.51440,0.84399,0.16406;
18:56:30.630,0.51001,0.83105,0.16357;
18:56:30.640,0.50439,0.83105,0.16675;
18:56:30.650,0.50098,0.84058,0.16821;
18:56:30.660,0.50146,0.86450,0.15552;
18:56:30.670,0.50757,0.88037,0.14185;
18:56:30.680,0.50977,0.87573,0.13281;
18:56:30.690,0.50830,0.87158,0.13281;
18:56:30.700,0.51196,0.87207,0.13696;
18:56:30.710,0.51855,0.87085,0.13989;
18:56:30.720,0.52051,0.86670,0.12402;
18:56:30.730,0.50537,0.85571,0.12036;
18:56:30.740,0.50000,0.85352,0.16309;
18:56:30.750,0.49585,0.84497,0.17896;
18:56:30.760,0.49268,0.84399,0.18579;
18:56:30.770,0.49292,0.85498,0.18945;
18:56:30.780,0.49658,0.86401,0.18555;
18:56:30.790,0.50415,0.84692,0.17505;
18:56:30.800,0.51465,0.82642,0.15967;
18:56:30.810,0.51978,0.81250,0.14209;
18:56:30.820,0.51392,0.81201,0.13013;
18:56:30.830,0.51001,0.84399,0.12671;
18:56:30.840,0.51025,0.87793,0.13306;
18:56:30.850,0.51025,0.87988,0.14746;
18:56:30.860,0.50732,0.85571,0.17529;
18:56:30.870,0.50342,0.83105,0.19336;
18:56:30.880,0.50122,0.82568,0.19336;
18:56:30.890,0.50220,0.85791,0.18872;
18:56:30.900,0.50952,0.85962,0.17944;
18:56:30.910,0.51465,0.83618,0.17627;
18:56:30.920,0.51489,0.84814,0.18188;
18:56:30.930,0.50903,0.86304,0.18359;
18:56:30.940,0.50244,0.86035,0.17773;
18:56:30.950,0.50244,0.85376,0.18481;
18:56:30.960,0.50610,0.86841,0.19995;
18:56:30.970,0.50488,0.88770,0.20581;
18:56:30.980,0.50171,0.88989,0.20972;
18:56:30.990,0.49902,0.88062,0.21338;
18:56:31.000,0.49463,0.87036,0.21509;
18:56:31.010,0.49463,0.87158,0.21875;
18:56:31.020,0.49512,0.86841,0.22168;
18:56:31.030,0.50342,0.83789,0.21387;
18:56:31.040,0.50806,0.82520,0.21387;
18:56:31.050,0.50903,0.84644,0.21387;
18:56:31.060,0.50952,0.86328,0.20776;
18:56:31.070,0.50830,0.86670,0.20898;
18:56:31.080,0.50903,0.87500,0.21753;
18:56:31.090,0.50977,0.87817,0.22607;
18:56:31.100,0.51099,0.87866,0.22485;
18:56:31.110,0.50757,0.86670,0.22583;
18:56:31.120,0.50244,0.84546,0.23535;
18:56:31.130,0.49780,0.83423,0.24365;
18:56:31.140,0.49805,0.83325,0.25122;
18:56:31.150,0.49976,0.82861,0.25903;
18:56:31.160,0.50171,0.81201,0.26025;
18:56:31.170,0.50342,0.80786,0.25781;
18:56:31.180,0.50464,0.81274,0.25464;
18:56:31.190,0.50562,0.81519,0.25122;
18:56:31.200,0.50366,0.81885,0.25342;
18:56:31.210,0.50195,0.83032,0.25708;
18:56:31.220,0.49829,0.84351,0.26025;
18:56:31.230,0.49902,0.85742,0.26392;
18:56:31.240,0.50195,0.86475,0.26489;
18:56:31.250,0.49976,0.85669,0.27197;
18:56:31.260,0.49878,0.84595,0.27319;
18:56:31.270,0.49805,0.84375,0.27026;
18:56:31.280,0.49683,0.84717,0.27197;
18:56:31.290,0.49854,0.85083,0.26978;
18:56:31.300,0.49756,0.85132,0.27808;
18:56:31.310,0.49390,0.85840,0.27856;
18:56:31.320,0.49512,0.86963,0.27612;
18:56:31.330,0.49731,0.87036,0.27295;
18:56:31.340,0.49927,0.84473,0.27856;
18:56:31.350,0.49976,0.84033,0.28687;
18:56:31.360,0.50000,0.84302,0.29272;
18:56:31.370,0.50146,0.85522,0.28931;
18:56:31.380,0.50317,0.86157,0.27661;
18:56:31.390,0.50122,0.85352,0.27197;
18:56:31.400,0.50098,0.83838,0.27393;
18:56:31.410,0.49805,0.82764,0.28052;
18:56:31.420,0.49634,0.82104,0.27661;
18:56:31.430,0.49609,0.82275,0.27563;
18:56:31.440,0.49438,0.82251,0.27954;
18:56:31.450,0.49487,0.81177,0.27954;
18:56:31.460,0.49609,0.79932,0.28345;
18:56:31.470,0.49829,0.80688,0.27588;
18:56:31.480,0.49902,0.82813,0.26636;
18:56:31.490,0.50366,0.83594,0.25879;
18:56:31.500,0.50586,0.82202,0.25781;
18:56:31.510,0.50415,0.79980,0.26636;
18:56:31.520,0.50220,0.80444,0.27734;
18:56:31.530,0.50000,0.82593,0.28760;
18:56:31.540,0.50342,0.82422,0.28271;
18:56:31.550,0.51489,0.79712,0.27734;
18:56:31.560,0.52734,0.79492,0.27026;
18:56:31.570,0.51489,0.86108,0.24243;
18:56:31.580,0.49219,0.89795,0.21899;
18:56:31.590,0.48267,0.83716,0.24341;
18:56:31.600,0.48340,0.78784,0.27734;
18:56:31.610,0.48291,0.79858,0.30151;
18:56:31.620,0.46851,0.78833,0.34106;
18:56:31.630,0.46167,0.77930,0.37549;
18:56:31.640,0.47192,1.15894,0.31445;
18:56:31.650,0.48193,0.88501,0.22339;
18:56:31.660,0.50244,0.74829,0.20557;
18:56:31.670,0.51294,0.70801,0.17627;
18:56:31.680,0.51343,0.69971,0.16919;
18:56:31.690,0.51099,0.67456,0.18408;
18:56:31.700,0.51514,0.69312,0.17847;
18:56:31.710,0.53076,0.79395,0.14624;
18:56:31.720,0.55615,0.87427,0.09888;
18:56:31.730,0.56860,0.88940,0.09692;
18:56:31.740,0.57910,0.91479,0.11621;
18:56:31.750,0.52246,0.90796,0.04419;
18:56:31.760,0.52563,0.87988,0.03247;
18:56:31.770,0.53198,0.89893,0.05054;
18:56:31.780,0.52832,0.94336,0.08105;
18:56:31.790,0.51221,0.95605,0.10010;
18:56:31.800,0.50073,0.93555,0.10962;
18:56:31.810,0.49292,0.91943,0.12793;
18:56:31.820,0.48779,0.90503,0.13330;
18:56:31.830,0.49243,0.86963,0.12134;
18:56:31.840,0.49414,0.81836,0.10132;
18:56:31.850,0.49609,0.78467,0.09204;
18:56:31.860,0.50415,0.82813,0.07202;
18:56:31.870,0.51440,0.96680,0.03491;
18:56:31.880,0.50317,0.95361,-0.02881;
18:56:31.890,0.50708,0.91089,0.01587;
18:56:31.900,0.49536,0.81836,0.01489;
18:56:31.910,0.50342,0.82129,0.00854;
18:56:31.920,0.50293,0.83472,-0.00195;
18:56:31.930,0.50073,0.87305,-0.01929;
18:56:31.940,0.49731,0.90967,-0.04004;
18:56:31.950,0.49756,0.90405,-0.05786;
18:56:31.960,0.50024,0.86987,-0.06885;
18:56:31.970,0.50073,0.81616,-0.06738;
18:56:31.980,0.49976,0.77441,-0.06885;
18:56:31.990,0.49902,0.75806,-0.07764;
18:56:32.000,0.49609,0.77393,-0.08203;
18:56:32.010,0.49146,0.79419,-0.08984;
18:56:32.020,0.48364,0.82422,-0.10474;
18:56:32.030,0.48218,0.88574,-0.12524;
18:56:32.040,0.48096,0.93018,-0.14917;
18:56:32.050,0.48022,0.94019,-0.17432;
18:56:32.060,0.49414,0.83765,-0.16382;
18:56:32.070,0.48975,0.79834,-0.15161;
18:56:32.080,0.48828,0.78003,-0.15430;
18:56:32.090,0.49585,0.78711,-0.15869;
18:56:32.100,0.50244,0.78784,-0.15698;
18:56:32.110,0.50171,0.78833,-0.15649;
18:56:32.120,0.49683,0.82080,-0.15381;
18:56:32.130,0.48901,0.86792,-0.15381;
18:56:32.140,0.48730,0.90063,-0.16602;
18:56:32.150,0.48999,0.92163,-0.18604;
18:56:32.160,0.48779,0.91748,-0.21313;
18:56:32.170,0.48340,0.89453,-0.22192;
18:56:32.180,0.49219,0.83545,-0.20532;
18:56:32.190,0.49438,0.82324,-0.20874;
18:56:32.200,0.49341,0.83154,-0.20117;
18:56:32.210,0.49365,0.82373,-0.18115;
18:56:32.220,0.49927,0.83105,-0.16235;
18:56:32.230,0.50317,0.85913,-0.16260;
18:56:32.240,0.50513,0.87305,-0.17822;
18:56:32.250,0.50366,0.86548,-0.19238;
18:56:32.260,0.50220,0.86670,-0.19971;
18:56:32.270,0.49756,0.86841,-0.20166;
18:56:32.280,0.48804,0.87720,-0.21313;
18:56:32.290,0.48584,0.89380,-0.20898;
18:56:32.300,0.48999,0.91602,-0.20703;
18:56:32.310,0.49072,0.94312,-0.19995;
18:56:32.320,0.47217,0.95361,-0.11816;
18:56:32.330,0.46143,0.93506,-0.09863;
18:56:32.340,0.46387,0.90381,-0.07715;
18:56:32.350,0.46826,0.85791,-0.06470;
18:56:32.360,0.46582,0.84497,-0.05371;
18:56:32.370,0.47290,0.86646,-0.06030;
18:56:32.380,0.47827,0.88672,-0.07031;
18:56:32.390,0.47192,0.94092,-0.07544;
18:56:32.400,0.45190,1.01392,-0.10205;
18:56:32.410,0.45605,0.96021,-0.11426;
18:56:32.420,0.46777,0.90552,-0.12061;
18:56:32.430,0.47266,0.87598,-0.12134;
18:56:32.440,0.46680,0.84717,-0.11523;
18:56:32.450,0.45850,0.82837,-0.10181;
18:56:32.460,0.44531,0.85107,-0.08447;
18:56:32.470,0.43164,0.89746,-0.06958;
18:56:32.480,0.43555,0.89819,-0.08105;
18:56:32.490,0.44922,0.88525,-0.08984;
18:56:32.500,0.46191,0.87378,-0.09302;
18:56:32.510,0.47266,0.86792,-0.09814;
18:56:32.520,0.46973,0.85083,-0.09912;
18:56:32.530,0.46460,0.85132,-0.10327;
18:56:32.540,0.46216,0.87769,-0.10645;
18:56:32.550,0.46118,0.89795,-0.10986;
18:56:32.560,0.46216,0.90234,-0.11108;
18:56:32.570,0.46265,0.89844,-0.11377;
18:56:32.580,0.46094,0.89380,-0.10693;
18:56:32.590,0.45996,0.89551,-0.09302;
18:56:32.600,0.46191,0.90210,-0.08643;
18:56:32.610,0.45801,0.90503,-0.07935;
18:56:32.620,0.45605,0.90186,-0.06958;
18:56:32.630,0.45557,0.90552,-0.06519;
18:56:32.640,0.44897,0.92578,-0.06348;
18:56:32.650,0.44482,0.94434,-0.07007;
18:56:32.660,0.44556,0.94702,-0.07373;
18:56:32.670,0.45020,0.94092,-0.07349;
18:56:32.680,0.45020,0.92871,-0.07324;
18:56:32.690,0.44727,0.91504,-0.07129;
18:56:32.700,0.44580,0.91016,-0.06982;
18:56:32.710,0.44678,0.91064,-0.06470;
18:56:32.720,0.44995,0.90845,-0.06104;
18:56:32.730,0.44775,0.90869,-0.05957;
18:56:32.740,0.44458,0.91235,-0.06079;
18:56:32.750,0.44629,0.91064,-0.05835;
18:56:32.760,0.43726,0.89795,-0.04932;
18:56:32.770,0.44482,0.90601,-0.05444;
18:56:32.780,0.44116,0.90796,-0.05371;
18:56:32.790,0.43530,0.90674,-0.04468;
18:56:32.800,0.43921,0.90967,-0.04126;
18:56:32.810,0.44238,0.91113,-0.04712;
18:56:32.820,0.44507,0.90991,-0.06592;
18:56:32.830,0.44824,0.91455,-0.06738;
18:56:32.840,0.44629,0.91602,-0.05786;
18:56:32.850,0.44580,0.91431,-0.05127;
18:56:32.860,0.44678,0.90747,-0.04297;
18:56:32.870,0.45313,0.89722,-0.04541;
18:56:32.880,0.45874,0.89746,-0.05103;
18:56:32.890,0.46118,0.90625,-0.05811;
18:56:32.900,0.45679,0.91699,-0.05786;
18:56:32.910,0.44922,0.92554,-0.06152;
18:56:32.920,0.44922,0.92651,-0.07739;
18:56:32.930,0.45068,0.91626,-0.08594;
18:56:32.940,0.45117,0.90625,-0.09033;
18:56:32.950,0.44897,0.89551,-0.09497;
18:56:32.960,0.44824,0.88696,-0.09546;
18:56:32.970,0.44629,0.89380,-0.09326;
18:56:32.980,0.44775,0.90576,-0.09204;
18:56:32.990,0.45532,0.92554,-0.11304;
18:56:33.000,0.45874,0.93701,-0.14014;
18:56:33.010,0.46313,0.93262,-0.17261;
18:56:33.020,0.46948,0.93481,-0.19873;
18:56:33.030,0.47437,0.95190,-0.21973;
18:56:33.040,0.47437,0.99976,-0.23462;
18:56:33.050,0.46313,1.01855,-0.23291;
18:56:33.060,0.45337,0.91992,-0.20435;
18:56:33.070,0.45068,0.87280,-0.15796;
18:56:33.080,0.44849,0.90918,-0.15869;
18:56:33.090,0.45581,0.99219,-0.19458;
18:56:33.100,0.45044,1.00488,-0.23193;
18:56:33.110,0.44507,0.96558,-0.24976;
18:56:33.120,0.45605,0.95728,-0.26758;
18:56:33.130,0.46265,0.95190,-0.28149;
18:56:33.140,0.45947,0.94434,-0.28979;
18:56:33.150,0.45605,0.94434,-0.30005;
18:56:33.160,0.45728,0.92554,-0.31348;
18:56:33.170,0.46069,0.93188,-0.32959;
18:56:33.180,0.46191,0.96411,-0.34888;
18:56:33.190,0.45996,0.97632,-0.36377;
18:56:33.200,0.46216,0.94409,-0.36841;
18:56:33.210,0.46338,0.88184,-0.37744;
18:56:33.220,0.45435,0.82349,-0.38135;
18:56:33.230,0.42993,0.78247,-0.38721;
18:56:33.240,0.41309,0.76831,-0.39917;
18:56:33.250,0.41064,0.75952,-0.41382;
18:56:33.260,0.41772,0.78564,-0.43066;
18:56:33.270,0.43774,0.82495,-0.46167;
18:56:33.280,0.46240,0.85010,-0.47900;
18:56:33.290,0.46973,0.78711,-0.47949;
18:56:33.300,0.46240,0.68872,-0.50708;
18:56:33.310,0.47559,0.67310,-0.52612;
18:56:33.320,0.46997,0.69800,-0.52539;
18:56:33.330,0.44409,0.70801,-0.53638;
18:56:33.340,0.43164,0.71533,-0.55151;
18:56:33.350,0.42798,0.76343,-0.55005;
18:56:33.360,0.40405,0.73926,-0.58594;
18:56:33.370,0.45972,0.67017,-0.61230;
18:56:33.380,0.45532,0.69629,-0.62500;
18:56:33.390,0.45361,0.70654,-0.60962;
18:56:33.400,0.39209,0.71533,-0.37695;
18:56:33.410,0.38306,0.74463,-0.36255;
18:56:33.420,0.37085,0.76416,-0.33154;
18:56:33.430,0.35742,0.77466,-0.28784;
18:56:33.440,0.34668,0.80347,-0.25659;
18:56:33.450,0.33423,0.84058,-0.22754;
18:56:33.460,0.32104,0.86499,-0.20801;
18:56:33.470,0.31299,0.88428,-0.21021;
18:56:33.480,0.31055,0.90039,-0.20215;
18:56:33.490,0.31616,0.90698,-0.19360;
18:56:33.500,0.32544,0.92651,-0.19092;
18:56:33.510,0.32617,0.94873,-0.18604;
18:56:33.520,0.32568,0.95068,-0.17847;
18:56:33.530,0.31982,0.95117,-0.15991;
18:56:33.540,0.30542,0.96118,-0.13818;
18:56:33.550,0.28491,0.97754,-0.11694;
18:56:33.560,0.26758,0.98340,-0.09473;
18:56:33.570,0.25293,0.97534,-0.07544;
18:56:33.580,0.21582,0.98120,-0.08521;
18:56:33.590,0.21704,1.05957,-0.07813;
18:56:33.600,0.20117,0.90259,-0.06787;
18:56:33.610,0.21777,0.90649,-0.06812;
18:56:33.620,0.25195,0.91064,-0.06665;
18:56:33.630,0.26465,0.88940,-0.07324;
18:56:33.640,0.27490,0.87183,-0.08105;
18:56:33.650,0.28296,0.86206,-0.09839;
18:56:33.660,0.28687,0.81812,-0.10620;
18:56:33.670,0.29468,0.73950,-0.08423;
18:56:33.680,0.31763,0.69482,-0.05420;
18:56:33.690,0.34033,0.71167,-0.02832;
18:56:33.700,0.34985,0.75098,-0.01685;
18:56:33.710,0.35059,0.77734,-0.01880;
18:56:33.720,0.35571,0.86328,-0.03076;
18:56:33.730,0.37427,0.97266,-0.03638;
18:56:33.740,0.38037,1.00854,-0.05298;
18:56:33.750,0.38330,0.97119,-0.07642;
18:56:33.760,0.38672,0.86401,-0.11938;
18:56:33.770,0.38354,0.81641,-0.12866;
18:56:33.780,0.39746,0.85791,-0.13354;
18:56:33.790,0.40698,0.94214,-0.12354;
18:56:33.800,0.40918,1.01733,-0.11377;
18:56:33.810,0.43433,0.92847,0.03882;
18:56:33.820,0.37891,0.90210,0.11768;
18:56:33.830,0.37744,0.88184,0.09717;
18:56:33.840,0.39282,0.91553,0.10693;
18:56:33.850,0.39551,0.94116,0.16577;
18:56:33.860,0.37720,0.89233,0.24658;
18:56:33.870,0.34912,0.85986,0.33228;
18:56:33.880,0.33179,0.90674,0.36743;
18:56:33.890,0.33301,0.98047,0.37158;
18:56:33.900,0.34058,1.00610,0.35889;
18:56:33.910,0.34814,0.97974,0.36523;
18:56:33.920,0.35278,0.93262,0.37476;
18:56:33.930,0.35327,0.90381,0.39233;
18:56:33.940,0.35352,0.87720,0.43896;
18:56:33.950,0.35034,0.85840,0.49219;
18:56:33.960,0.35010,0.89331,0.49146;
18:56:33.970,0.36914,0.97900,0.42090;
18:56:33.980,0.38892,1.03247,0.35767;
18:56:33.990,0.39600,1.01123,0.34863;
18:56:34.000,0.39478,0.95679,0.36816;
18:56:34.010,0.39380,0.90674,0.37671;
18:56:34.020,0.39795,0.89746,0.39233;
18:56:34.030,0.40039,0.87622,0.44946;
18:56:34.040,0.39160,0.79858,0.48364;
18:56:34.050,0.37915,0.80029,0.53101;
18:56:34.060,0.36255,0.91724,0.53760;
18:56:34.070,0.36768,1.02783,0.48193;
18:56:34.080,0.38110,1.03955,0.43530;
18:56:34.090,0.36060,0.98975,0.42432;
18:56:34.100,0.34692,0.96362,0.48706;
18:56:34.110,0.37866,0.82104,0.52637;
18:56:34.120,0.37378,0.78198,0.43188;
18:56:34.130,0.36841,0.82227,0.39624;
18:56:34.140,0.37183,0.85132,0.36816;
18:56:34.150,0.37476,0.80420,0.36963;
18:56:34.160,0.37231,0.74121,0.38867;
18:56:34.170,0.37476,0.72900,0.40649;
18:56:34.180,0.38696,0.71680,0.42310;
18:56:34.190,0.39282,0.69189,0.43237;
18:56:34.200,0.39160,0.69287,0.43286;
18:56:34.210,0.38501,0.72412,0.42407;
18:56:34.220,0.38086,0.76440,0.41797;
18:56:34.230,0.38550,0.76636,0.42212;
18:56:34.240,0.39258,0.71069,0.43945;
18:56:34.250,0.40063,0.67993,0.45361;
18:56:34.260,0.40356,0.68091,0.46362;
18:56:34.270,0.40039,0.68140,0.47998;
18:56:34.280,0.39160,0.71240,0.50269;
18:56:34.290,0.46680,0.64380,0.58374;
18:56:34.300,0.43384,0.66650,0.64087;
18:56:34.310,0.43652,0.71533,0.69482;
18:56:34.320,0.44238,0.68066,0.74097;
18:56:34.330,0.43506,0.63501,0.77490;
18:56:34.340,0.43774,0.57959,0.81177;
18:56:34.350,0.45264,0.33765,0.82520;
18:56:34.360,0.40063,0.56372,0.84302;
18:56:34.370,0.42505,0.69312,0.84424;
18:56:34.380,0.44312,0.63916,0.83374;
18:56:34.390,0.42480,0.55420,0.84985;
18:56:34.400,0.39966,0.53223,0.86426;
18:56:34.410,0.40430,0.50049,0.85425;
18:56:34.420,0.41357,0.46533,0.85913;
18:56:34.430,0.41382,0.46289,0.86304;
18:56:34.440,0.41846,0.47876,0.85059;
18:56:34.450,0.43188,0.46094,0.84424;
18:56:34.460,0.42798,0.47095,0.82764;
18:56:34.470,0.42871,0.47607,0.80786;
18:56:34.480,0.44629,0.45190,0.80981;
18:56:34.490,0.45264,0.40552,0.81934;
18:56:34.500,0.45239,0.37573,0.82764;
18:56:34.510,0.45288,0.35303,0.85034;
18:56:34.520,0.45288,0.33179,0.86694;
18:56:34.530,0.45166,0.32568,0.86621;
18:56:34.540,0.45044,0.31519,0.86328;
18:56:34.550,0.45020,0.32690,0.85400;
18:56:34.560,0.45581,0.34473,0.84595;
18:56:34.570,0.46289,0.33813,0.84058;
18:56:34.580,0.46851,0.31006,0.83838;
18:56:34.590,0.46875,0.29102,0.84277;
18:56:34.600,0.46606,0.30737,0.85010;
18:56:34.610,0.47070,0.31714,0.86035;
18:56:34.620,0.47534,0.29980,0.87573;
18:56:34.630,0.47192,0.28369,0.89868;
18:56:34.640,0.46973,0.27100,0.91260;
18:56:34.650,0.47363,0.27832,0.90625;
18:56:34.660,0.46997,0.27368,0.88013;
18:56:34.670,0.46680,0.28052,0.88623;
18:56:34.680,0.46704,0.27612,0.89282;
18:56:34.690,0.46436,0.25757,0.89404;
18:56:34.700,0.46069,0.25391,0.89868;
18:56:34.710,0.46021,0.27148,0.89868;
18:56:34.720,0.46338,0.27661,0.88940;
18:56:34.730,0.46289,0.27246,0.88672;
18:56:34.740,0.46143,0.27466,0.89063;
18:56:34.750,0.46289,0.28662,0.88916;
18:56:34.760,0.46338,0.30811,0.87939;
18:56:34.770,0.46411,0.31860,0.86572;
18:56:34.780,0.46216,0.31567,0.85083;
18:56:34.790,0.45923,0.32129,0.84595;
18:56:34.800,0.46362,0.31372,0.84888;
18:56:34.810,0.46704,0.28369,0.85278;
18:56:34.820,0.46436,0.27368,0.86060;
18:56:34.830,0.46387,0.28564,0.86987;
18:56:34.840,0.46460,0.31055,0.86865;
18:56:34.850,0.45459,0.34888,0.87183;
18:56:34.860,0.45190,0.38452,0.87280;
18:56:34.870,0.45679,0.39429,0.86572;
18:56:34.880,0.45361,0.38208,0.86694;
18:56:34.890,0.45898,0.33569,0.87427;
18:56:34.900,0.46973,0.27441,0.87012;
18:56:34.910,0.46899,0.20972,0.86841;
18:56:34.920,0.46167,0.19263,0.88770;
18:56:34.930,0.46289,0.25708,0.91846;
18:56:34.940,0.46997,0.32959,0.94141;
18:56:34.950,0.47925,0.36206,0.94922;
18:56:34.960,0.45264,0.39966,0.89087;
18:56:34.970,0.43579,0.36963,0.79980;
18:56:34.980,0.43628,0.32373,0.79468;
18:56:34.990,0.44312,0.28271,0.81787;
18:56:35.000,0.44019,0.27612,0.85449;
18:56:35.010,0.43774,0.30518,0.88867;
18:56:35.020,0.44336,0.37280,0.89624;
18:56:35.030,0.44727,0.42065,0.88159;
18:56:35.040,0.43823,0.43188,0.86060;
18:56:35.050,0.43140,0.41797,0.84155;
18:56:35.060,0.44165,0.37354,0.81885;
18:56:35.070,0.44043,0.35815,0.80151;
18:56:35.080,0.43701,0.37476,0.78198;
18:56:35.090,0.44067,0.39185,0.78711;
18:56:35.100,0.42944,0.41113,0.79565;
18:56:35.110,0.42017,0.41650,0.79370;
18:56:35.120,0.41406,0.40674,0.80176;
18:56:35.130,0.40967,0.40649,0.80908;
18:56:35.140,0.40601,0.42432,0.83496;
18:56:35.150,0.40869,0.43286,0.84668;
18:56:35.160,0.40747,0.43091,0.84326;
18:56:35.170,0.40552,0.41504,0.83691;
18:56:35.180,0.40649,0.37915,0.82422;
18:56:35.190,0.40576,0.36035,0.81348;
18:56:35.200,0.40747,0.37524,0.80469;
18:56:35.210,0.40454,0.41187,0.81470;
18:56:35.220,0.40161,0.44141,0.83789;
18:56:35.230,0.40332,0.44238,0.88110;
18:56:35.240,0.39941,0.44116,0.93701;
18:56:35.250,0.39819,0.47266,0.95898;
18:56:35.260,0.40161,0.39282,0.84863;
18:56:35.270,0.40356,0.36694,0.75879;
18:56:35.280,0.40405,0.41357,0.76855;
18:56:35.290,0.40527,0.47241,0.80225;
18:56:35.300,0.40283,0.49512,0.84717;
18:56:35.310,0.39087,0.48877,0.89331;
18:56:35.320,0.38892,0.48926,0.90991;
18:56:35.330,0.39868,0.46875,0.87134;
18:56:35.340,0.40454,0.42627,0.80933;
18:56:35.350,0.40796,0.38550,0.76709;
18:56:35.360,0.41211,0.37939,0.76123;
18:56:35.370,0.41187,0.41699,0.78564;
18:56:35.380,0.40967,0.44946,0.80273;
18:56:35.390,0.40308,0.46289,0.81909;
18:56:35.400,0.39526,0.46924,0.83423;
18:56:35.410,0.38916,0.46729,0.84497;
18:56:35.420,0.38794,0.46143,0.83789;
18:56:35.430,0.38892,0.45630,0.82227;
18:56:35.440,0.39136,0.43335,0.80542;
18:56:35.450,0.39429,0.39941,0.78442;
18:56:35.460,0.38550,0.41309,0.78857;
18:56:35.470,0.38062,0.46436,0.79810;
18:56:35.480,0.38452,0.49512,0.80103;
18:56:35.490,0.39258,0.49902,0.79956;
18:56:35.500,0.39624,0.48071,0.79883;
18:56:35.510,0.39160,0.45508,0.80566;
18:56:35.520,0.39038,0.45117,0.81616;
18:56:35.530,0.39600,0.44507,0.83154;
18:56:35.540,0.39868,0.42749,0.83740;
18:56:35.550,0.39087,0.50659,0.82642;
18:56:35.560,0.38794,0.55640,0.85352;
18:56:35.570,0.38818,0.57031,0.83521;
18:56:35.580,0.38721,0.54346,0.81665;
18:56:35.590,0.38306,0.52808,0.81763;
18:56:35.600,0.38965,0.50586,0.83325;
18:56:35.610,0.39404,0.45386,0.85596;
18:56:35.620,0.37842,0.47656,0.86328;
18:56:35.630,0.36572,0.56445,0.85034;
18:56:35.640,0.36914,0.61792,0.82324;
18:56:35.650,0.39063,0.61523,0.76733;
18:56:35.660,0.40186,0.58521,0.70313;
18:56:35.670,0.39624,0.56714,0.67993;
18:56:35.680,0.40186,0.54346,0.69995;
18:56:35.690,0.40601,0.53027,0.72217;
18:56:35.700,0.39648,0.56299,0.74268;
18:56:35.710,0.38794,0.59717,0.75586;
18:56:35.720,0.38501,0.60693,0.76440;
18:56:35.730,0.37671,0.60913,0.77002;
18:56:35.740,0.36841,0.60522,0.76318;
18:56:35.750,0.36694,0.59033,0.74951;
18:56:35.760,0.36646,0.56494,0.73193;
18:56:35.770,0.36670,0.54321,0.73608;
18:56:35.780,0.36719,0.53271,0.74512;
18:56:35.790,0.36646,0.54150,0.74146;
18:56:35.800,0.35767,0.58984,0.73877;
18:56:35.810,0.34961,0.62500,0.72998;
18:56:35.820,0.35376,0.61890,0.71094;
18:56:35.830,0.35815,0.61597,0.69263;
18:56:35.840,0.36401,0.63184,0.67261;
18:56:35.850,0.37012,0.63892,0.69238;
18:56:35.860,0.36401,0.66650,0.71582;
18:56:35.870,0.36914,0.65698,0.72437;
18:56:35.880,0.37256,0.62256,0.71899;
18:56:35.890,0.37451,0.59912,0.70825;
18:56:35.900,0.36938,0.60913,0.69873;
18:56:35.910,0.36597,0.62280,0.70044;
18:56:35.920,0.35962,0.62378,0.71509;
18:56:35.930,0.34888,0.63501,0.71802;
18:56:35.940,0.34351,0.64990,0.72388;
18:56:35.950,0.34229,0.66260,0.72559;
18:56:35.960,0.34937,0.67578,0.70410;
18:56:35.970,0.35767,0.67090,0.68066;
18:56:35.980,0.36108,0.65186,0.66357;
18:56:35.990,0.36182,0.62158,0.67700;
18:56:36.000,0.36035,0.63037,0.69702;
18:56:36.010,0.35986,0.68115,0.69702;
18:56:36.020,0.35571,0.70947,0.69238;
18:56:36.030,0.35034,0.70679,0.69214;
18:56:36.040,0.34741,0.70410,0.68384;
18:56:36.050,0.35034,0.70386,0.67407;
18:56:36.060,0.35083,0.68530,0.68140;
18:56:36.070,0.35303,0.65894,0.68262;
18:56:36.080,0.35889,0.64307,0.68237;
18:56:36.090,0.35400,0.63232,0.68286;
18:56:36.100,0.35278,0.63110,0.68384;
18:56:36.110,0.34912,0.65210,0.68457;
18:56:36.120,0.34229,0.68018,0.68604;
18:56:36.130,0.33643,0.68896,0.68945;
18:56:36.140,0.33594,0.69824,0.68481;
18:56:36.150,0.35864,0.66406,0.63477;
18:56:36.160,0.35522,0.66113,0.64551;
18:56:36.170,0.34692,0.68481,0.66260;
18:56:36.180,0.34351,0.70361,0.68335;
18:56:36.190,0.34326,0.70581,0.68701;
18:56:36.200,0.33643,0.69409,0.68213;
18:56:36.210,0.33960,0.70068,0.66870;
18:56:36.220,0.34790,0.69702,0.66089;
18:56:36.230,0.34595,0.67139,0.66602;
18:56:36.240,0.34302,0.67065,0.67261;
18:56:36.250,0.34619,0.68848,0.67725;
18:56:36.260,0.34814,0.69751,0.68066;
18:56:36.270,0.34546,0.69897,0.68237;
18:56:36.280,0.34741,0.70020,0.67456;
18:56:36.290,0.35083,0.70020,0.67236;
18:56:36.300,0.35498,0.69336,0.66431;
18:56:36.310,0.36060,0.67725,0.65015;
18:56:36.320,0.36304,0.66235,0.64063;
18:56:36.330,0.35815,0.67480,0.64600;
18:56:36.340,0.35010,0.70166,0.65894;
18:56:36.350,0.34473,0.71289,0.67383;
18:56:36.360,0.34033,0.70996,0.69067;
18:56:36.370,0.33936,0.70508,0.69751;
18:56:36.380,0.33862,0.69824,0.69385;
18:56:36.390,0.34570,0.69165,0.67651;
18:56:36.400,0.34985,0.69165,0.66138;
18:56:36.410,0.34546,0.68408,0.65698;
18:56:36.420,0.34692,0.68677,0.65796;
18:56:36.430,0.34424,0.69727,0.66699;
18:56:36.440,0.34058,0.69873,0.67871;
18:56:36.450,0.34033,0.68970,0.67505;
18:56:36.460,0.34717,0.67822,0.65479;
18:56:36.470,0.34839,0.67041,0.64746;
18:56:36.480,0.34277,0.67749,0.64868;
18:56:36.490,0.34180,0.69336,0.65576;
18:56:36.500,0.34229,0.69653,0.67041;
18:56:36.510,0.33325,0.70166,0.67700;
18:56:36.520,0.33105,0.69458,0.67603;
18:56:36.530,0.33374,0.69409,0.67285;
18:56:36.540,0.33594,0.69238,0.66821;
18:56:36.550,0.33765,0.67358,0.66675;
18:56:36.560,0.34033,0.67017,0.66895;
18:56:36.570,0.34058,0.67578,0.67285;
18:56:36.580,0.34009,0.68994,0.66943;
18:56:36.590,0.34351,0.68872,0.67090;
18:56:36.600,0.34326,0.69458,0.67505;
18:56:36.610,0.34473,0.70654,0.67773;
18:56:36.620,0.34546,0.70142,0.67480;
18:56:36.630,0.34204,0.70508,0.67676;
18:56:36.640,0.34033,0.70483,0.67700;
18:56:36.650,0.33960,0.69702,0.67188;
18:56:36.660,0.33618,0.69531,0.67505;
18:56:36.670,0.33301,0.70068,0.67578;
18:56:36.680,0.33252,0.70532,0.67920;
18:56:36.690,0.32983,0.70264,0.68555;
18:56:36.700,0.32910,0.70459,0.68628;
18:56:36.710,0.33130,0.70044,0.67993;
18:56:36.720,0.33691,0.68384,0.67358;
18:56:36.730,0.33838,0.68286,0.66553;
18:56:36.740,0.33643,0.69849,0.66138;
18:56:36.750,0.33398,0.70654,0.66992;
18:56:36.760,0.33105,0.70728,0.67920;
18:56:36.770,0.33081,0.69336,0.69141;
18:56:36.780,0.33154,0.68677,0.68579;
18:56:36.790,0.33008,0.68994,0.67798;
18:56:36.800,0.33057,0.69336,0.67407;
18:56:36.810,0.33130,0.68750,0.66992;
18:56:36.820,0.33032,0.68726,0.66626;
18:56:36.830,0.33008,0.69263,0.66382;
18:56:36.840,0.32886,0.69238,0.65405;
18:56:36.850,0.32886,0.68872,0.65430;
18:56:36.860,0.32959,0.68359,0.65625;
18:56:36.870,0.32935,0.68018,0.65698;
18:56:36.880,0.33081,0.68164,0.67188;
18:56:36.890,0.33276,0.68701,0.68262;
18:56:36.900,0.33154,0.69165,0.68628;
18:56:36.910,0.32617,0.68848,0.69043;
18:56:36.920,0.32520,0.68823,0.69141;
18:56:36.930,0.32544,0.69067,0.68286;
18:56:36.940,0.32642,0.68994,0.66211;
18:56:36.950,0.32788,0.69922,0.65356;
18:56:36.960,0.32739,0.71143,0.66064;
18:56:36.970,0.32617,0.71460,0.67871;
18:56:36.980,0.32300,0.73071,0.71436;
18:56:36.990,0.32251,0.74683,0.73047;
18:56:37.000,0.31348,0.72705,0.74609;
18:56:37.010,0.31299,0.70654,0.74536;
18:56:37.020,0.31299,0.66748,0.70654;
18:56:37.030,0.30884,0.63306,0.66235;
18:56:37.040,0.31348,0.62622,0.62939;
18:56:37.050,0.31909,0.61768,0.61377;
18:56:37.060,0.33374,0.66943,0.60449;
18:56:37.070,0.33032,0.67529,0.61768;
18:56:37.080,0.33643,0.67920,0.64233;
18:56:37.090,0.33716,0.68774,0.67969;
18:56:37.100,0.33325,0.70264,0.70386;
18:56:37.110,0.33569,0.71729,0.70508;
18:56:37.120,0.34375,0.71045,0.69751;
18:56:37.130,0.34546,0.69873,0.69507;
18:56:37.140,0.34644,0.69653,0.69458;
18:56:37.150,0.34961,0.69946,0.68994;
18:56:37.160,0.34692,0.70215,0.69189;
18:56:37.170,0.34277,0.70166,0.70020;
18:56:37.180,0.33643,0.70044,0.70483;
18:56:37.190,0.33252,0.70605,0.70776;
18:56:37.200,0.33252,0.71387,0.70703;
18:56:37.210,0.33301,0.70923,0.69702;
18:56:37.220,0.33716,0.68945,0.68750;
18:56:37.230,0.33618,0.67041,0.68042;
18:56:37.240,0.33691,0.66748,0.67554;
18:56:37.250,0.33594,0.66797,0.66357;
18:56:37.260,0.33130,0.67212,0.65918;
18:56:37.270,0.33154,0.67969,0.66821;
18:56:37.280,0.33228,0.68457,0.67871;
18:56:37.290,0.33154,0.68579,0.67993;
18:56:37.300,0.33130,0.68359,0.68359;
18:56:37.310,0.33496,0.68066,0.68750;
18:56:37.320,0.33911,0.67090,0.67676;
18:56:37.330,0.33472,0.66406,0.66748;
18:56:37.340,0.33105,0.66479,0.67896;
18:56:37.350,0.32910,0.66553,0.68726;
18:56:37.360,0.32593,0.70093,0.69946;
18:56:37.370,0.32861,0.69556,0.68799;
18:56:37.380,0.33228,0.67603,0.68872;
18:56:37.390,0.33521,0.66919,0.68384;
18:56:37.400,0.33618,0.66455,0.67480;
18:56:37.410,0.33496,0.66528,0.67212;
18:56:37.420,0.33374,0.66309,0.67773;
18:56:37.430,0.32959,0.67261,0.67969;
18:56:37.440,0.33105,0.68066,0.67456;
18:56:37.450,0.32983,0.68408,0.67529;
18:56:37.460,0.32861,0.68066,0.67700;
18:56:37.470,0.33252,0.67090,0.67993;
18:56:37.480,0.33618,0.66797,0.68066;
18:56:37.490,0.33447,0.67310,0.68506;
18:56:37.500,0.33569,0.67651,0.68823;
18:56:37.510,0.33936,0.67969,0.68335;
18:56:37.520,0.33594,0.68530,0.68799;
18:56:37.530,0.33447,0.68872,0.70068;
18:56:37.540,0.33716,0.68579,0.71362;
18:56:37.550,0.33643,0.67993,0.71460;
18:56:37.560,0.33618,0.66577,0.70654;
18:56:37.570,0.33936,0.65894,0.69922;
18:56:37.580,0.34546,0.67358,0.68579;
18:56:37.590,0.33765,0.69312,0.68433;
18:56:37.600,0.33960,0.67822,0.69263;
18:56:37.610,0.33716,0.66553,0.69751;
18:56:37.620,0.33325,0.66895,0.70386;
18:56:37.630,0.33813,0.67407,0.70728;
18:56:37.640,0.34351,0.67017,0.70459;
18:56:37.650,0.34619,0.65845,0.69189;
18:56:37.660,0.34326,0.65942,0.67554;
18:56:37.670,0.34131,0.67603,0.67065;
18:56:37.680,0.33740,0.69092,0.67505;
18:56:37.690,0.33765,0.70190,0.68994;
18:56:37.700,0.33984,0.70190,0.70508;
18:56:37.710,0.33984,0.69507,0.70972;
18:56:37.720,0.34058,0.68262,0.69800;
18:56:37.730,0.34131,0.66968,0.68066;
18:56:37.740,0.34326,0.67700,0.66943;
18:56:37.750,0.34473,0.68457,0.66064;
18:56:37.760,0.34692,0.68652,0.66699;
18:56:37.770,0.35278,0.68457,0.68701;
18:56:37.780,0.36499,0.66895,0.70386;
18:56:37.790,0.37134,0.66040,0.71680;
18:56:37.800,0.37720,0.66895,0.71143;
18:56:37.810,0.38623,0.67505,0.69458;
18:56:37.820,0.38501,0.66406,0.67871;
18:56:37.830,0.38306,0.67188,0.67383;
18:56:37.840,0.38477,0.68506,0.67847;
18:56:37.850,0.38623,0.68384,0.69263;
18:56:37.860,0.38379,0.68457,0.70728;
18:56:37.870,0.38208,0.67822,0.70752;
18:56:37.880,0.38013,0.67114,0.70874;
18:56:37.890,0.38062,0.66309,0.67114;
18:56:37.900,0.37671,0.62500,0.64624;
18:56:37.910,0.37744,0.63428,0.66504;
18:56:37.920,0.38647,0.64575,0.67188;
18:56:37.930,0.38623,0.64185,0.67603;
18:56:37.940,0.38379,0.63916,0.68628;
18:56:37.950,0.38110,0.63110,0.68896;
18:56:37.960,0.37842,0.62646,0.67261;
18:56:37.970,0.37378,0.62744,0.65527;
18:56:37.980,0.37769,0.63184,0.65210;
18:56:37.990,0.38354,0.63745,0.65723;
18:56:38.000,0.38428,0.65527,0.66504;
18:56:38.010,0.39185,0.66260,0.67627;
18:56:38.020,0.39233,0.65601,0.68042;
18:56:38.030,0.39185,0.67188,0.68970;
18:56:38.040,0.39893,0.68457,0.68701;
18:56:38.050,0.39795,0.67822,0.67798;
18:56:38.060,0.39209,0.66504,0.67383;
18:56:38.070,0.38965,0.65576,0.66797;
18:56:38.080,0.38818,0.65088,0.66431;
18:56:38.090,0.38354,0.65332,0.66650;
18:56:38.100,0.38013,0.66504,0.68701;
18:56:38.110,0.38330,0.66431,0.69751;
18:56:38.120,0.38696,0.65942,0.69092;
18:56:38.130,0.38037,0.65918,0.68213;
18:56:38.140,0.37891,0.66821,0.67163;
18:56:38.150,0.37915,0.65991,0.66846;
18:56:38.160,0.37183,0.64185,0.67358;
18:56:38.170,0.36670,0.64282,0.67603;
18:56:38.180,0.36353,0.64258,0.68091;
18:56:38.190,0.35742,0.64160,0.68091;
18:56:38.200,0.36011,0.63696,0.69141;
18:56:38.210,0.36426,0.63696,0.68945;
18:56:38.220,0.36865,0.64307,0.70142;
18:56:38.230,0.37109,0.65210,0.71362;
18:56:38.240,0.37256,0.66162,0.72729;
18:56:38.250,0.37402,0.66333,0.73901;
18:56:38.260,0.37793,0.65625,0.73584;
18:56:38.270,0.37915,0.64917,0.72705;
18:56:38.280,0.37988,0.64355,0.71362;
18:56:38.290,0.38403,0.64429,0.70581;
18:56:38.300,0.38696,0.64404,0.69556;
18:56:38.310,0.38086,0.63623,0.68945;
18:56:38.320,0.37573,0.63330,0.68848;
18:56:38.330,0.37598,0.62720,0.68408;
18:56:38.340,0.37427,0.62939,0.68237;
18:56:38.350,0.37109,0.64380,0.68726;
18:56:38.360,0.37427,0.65112,0.69019;
18:56:38.370,0.38184,0.63892,0.68652;
18:56:38.380,0.38354,0.61865,0.69092;
18:56:38.390,0.38306,0.61475,0.70605;
18:56:38.400,0.38525,0.62061,0.71826;
18:56:38.410,0.38672,0.61987,0.71533;
18:56:38.420,0.38525,0.61865,0.71021;
18:56:38.430,0.38330,0.63208,0.70093;
18:56:38.440,0.38770,0.64844,0.69141;
18:56:38.450,0.38916,0.65845,0.70410;
18:56:38.460,0.39282,0.66187,0.71704;
18:56:38.470,0.39673,0.65967,0.71631;
18:56:38.480,0.39575,0.65210,0.72729;
18:56:38.490,0.39355,0.65088,0.74048;
18:56:38.500,0.40161,0.68115,0.74756;
18:56:38.510,0.44336,0.75977,0.75977;
18:56:38.520,0.45947,0.74365,0.76807;
18:56:38.530,0.46802,0.70532,0.77588;
18:56:38.540,0.45776,0.67505,0.78857;
18:56:38.550,0.44849,0.67529,0.79565;
18:56:38.560,0.44800,0.69189,0.77563;
18:56:38.570,0.44360,0.70361,0.74634;
18:56:38.580,0.42212,0.70996,0.72021;
18:56:38.590,0.39673,0.70654,0.73218;
18:56:38.600,0.38843,0.73169,0.75952;
18:56:38.610,0.39014,0.75098,0.76294;
18:56:38.620,0.38940,0.71826,0.76587;
18:56:38.630,0.39429,0.66626,0.76074;
18:56:38.640,0.39404,0.61865,0.75635;
18:56:38.650,0.38379,0.60571,0.74756;
18:56:38.660,0.37256,0.63110,0.72534;
18:56:38.670,0.36304,0.66064,0.70557;
18:56:38.680,0.35571,0.68896,0.69507;
18:56:38.690,0.35400,0.72437,0.68213;
18:56:38.700,0.35254,0.75293,0.65381;
18:56:38.710,0.34497,0.72095,0.62134;
18:56:38.720,0.34399,0.64575,0.59644;
18:56:38.730,0.35107,0.55078,0.58179;
18:56:38.740,0.35278,0.52490,0.58618;
18:56:38.750,0.33765,0.59814,0.59351;
18:56:38.760,0.32373,0.65430,0.60229;
18:56:38.770,0.29761,0.65063,0.61450;
18:56:38.780,0.26636,0.74219,0.67041;
18:56:38.790,0.27417,0.67188,0.66504;
18:56:38.800,0.27173,0.61157,0.68872;
18:56:38.810,0.27344,0.60278,0.70630;
18:56:38.820,0.27759,0.62012,0.71582;
18:56:38.830,0.27246,0.63013,0.73486;
18:56:38.840,0.26758,0.64917,0.75098;
18:56:38.850,0.26440,0.67651,0.76001;
18:56:38.860,0.25708,0.71240,0.77271;
18:56:38.870,0.28589,0.71289,0.76123;
18:56:38.880,0.28467,0.69653,0.73682;
18:56:38.890,0.27930,0.69019,0.70654;
18:56:38.900,0.28223,0.65381,0.69800;
18:56:38.910,0.27832,0.60645,0.71948;
18:56:38.920,0.26733,0.58179,0.74634;
18:56:38.930,0.26001,0.60205,0.76514;
18:56:38.940,0.25488,0.69995,0.77075;
18:56:38.950,0.25073,0.72656,0.75195;
18:56:38.960,0.23145,0.72681,0.73584;
18:56:38.970,0.20850,0.69995,0.71729;
18:56:38.980,0.19702,0.66895,0.73267;
18:56:38.990,0.18237,0.66968,0.76172;
18:56:39.000,0.17310,0.67480,0.78076;
18:56:39.010,0.17285,0.67139,0.79761;
18:56:39.020,0.16528,0.68018,0.79468;
18:56:39.030,0.15137,0.73047,0.78296;
18:56:39.040,0.14746,0.81738,0.76123;
18:56:39.050,0.17920,0.94312,0.71313;
18:56:39.060,0.21704,0.69531,0.70313;
18:56:39.070,0.23462,0.57104,0.72119;
18:56:39.080,0.24438,0.56665,0.74487;
18:56:39.090,0.24731,0.65942,0.74829;
18:56:39.100,0.24219,0.75464,0.73999;
18:56:39.110,0.22363,0.80884,0.73438;
18:56:39.120,0.20093,0.83521,0.72974;
18:56:39.130,0.18164,0.83862,0.72095;
18:56:39.140,0.17896,0.82544,0.70435;
18:56:39.150,0.18530,0.79932,0.68750;
18:56:39.160,0.19092,0.78418,0.65723;
18:56:39.170,0.19556,0.79907,0.61792;
18:56:39.180,0.19507,0.80151,0.58057;
18:56:39.190,0.18848,0.80518,0.56299;
18:56:39.200,0.16821,0.80762,0.57788;
18:56:39.210,0.14648,0.84106,0.58813;
18:56:39.220,0.13721,0.93848,0.58569;
18:56:39.230,0.14185,0.97900,0.56494;
18:56:39.240,0.14697,0.91504,0.53564;
18:56:39.250,0.14111,0.80176,0.52295;
18:56:39.260,0.12598,0.70093,0.52954;
18:56:39.270,0.11938,0.66211,0.53687;
18:56:39.280,0.11523,0.67407,0.53662;
18:56:39.290,0.10645,0.71021,0.52930;
18:56:39.300,0.09570,0.74854,0.52490;
18:56:39.310,0.08325,0.75659,0.51978;
18:56:39.320,0.08447,0.75000,0.50391;
18:56:39.330,0.08691,0.78589,0.50098;
18:56:39.340,0.07495,0.84717,0.47168;
18:56:39.350,0.06079,0.84741,0.42041;
18:56:39.360,0.06274,0.79224,0.40332;
18:56:39.370,0.02344,0.76953,0.50122;
18:56:39.380,-0.01001,0.75464,0.56812;
18:56:39.390,-0.04541,0.73608,0.63696;
18:56:39.400,-0.06177,0.73608,0.68140;
18:56:39.410,-0.06128,0.76758,0.67676;
18:56:39.420,-0.04688,0.80029,0.63110;
18:56:39.430,-0.03174,0.81250,0.56152;
18:56:39.440,-0.01953,0.81885,0.49341;
18:56:39.450,0.00098,0.80176,0.46313;
18:56:39.460,0.01733,0.79321,0.47729;
18:56:39.470,0.00342,0.79224,0.50195;
18:56:39.480,-0.02686,0.80396,0.51465;
18:56:39.490,-0.03003,0.85718,0.51587;
18:56:39.500,-0.02026,0.88306,0.50854;
18:56:39.510,-0.00537,0.86890,0.51978;
18:56:39.520,0.01001,0.85498,0.53101;
18:56:39.530,0.00928,0.85498,0.53052;
18:56:39.540,0.00464,0.87207,0.52002;
18:56:39.550,0.01074,0.88696,0.48584;
18:56:39.560,0.01294,0.88037,0.46777;
18:56:39.570,0.00659,0.89087,0.47363;
18:56:39.580,-0.00122,0.94019,0.48877;
18:56:39.590,-0.00977,0.99097,0.49414;
18:56:39.600,0.00049,0.85718,0.47925;
18:56:39.610,0.01001,0.80835,0.43677;
18:56:39.620,0.01660,0.80249,0.39722;
18:56:39.630,0.02319,0.86499,0.33472;
18:56:39.640,-0.00806,0.82300,0.32666;
18:56:39.650,0.00952,0.78394,0.31543;
18:56:39.660,0.01636,0.74023,0.31445;
18:56:39.670,0.02173,0.71875,0.30566;
18:56:39.680,0.03979,0.70337,0.29932;
18:56:39.690,0.06348,0.68115,0.29663;
18:56:39.700,0.07690,0.66577,0.31787;
18:56:39.710,0.08423,0.69849,0.35693;
18:56:39.720,0.09839,0.72510,0.39404;
18:56:39.730,0.11230,0.68457,0.42358;
18:56:39.740,0.10010,0.65991,0.42700;
18:56:39.750,0.08887,0.63672,0.39697;
18:56:39.760,0.08716,0.58813,0.35693;
18:56:39.770,0.08789,0.54468,0.32739;
18:56:39.780,0.08130,0.51733,0.29883;
18:56:39.790,0.07544,0.49194,0.28320;
18:56:39.800,0.08252,0.45386,0.29785;
18:56:39.810,0.09521,0.42871,0.39575;
18:56:39.820,0.11523,0.45190,0.54419;
18:56:39.830,0.13989,0.49951,0.63208;
18:56:39.840,0.16138,0.49219,0.66528;
18:56:39.850,0.16528,0.46338,0.66064;
18:56:39.860,0.17773,0.45288,0.61401;
18:56:39.870,0.22485,0.42212,0.54565;
18:56:39.880,0.27905,0.37354,0.49316;
18:56:39.890,0.34106,0.32935,0.48535;
18:56:39.900,0.40088,0.28564,0.53271;
18:56:39.910,0.45410,0.22095,0.60205;
18:56:39.920,0.51953,0.16431,0.64355;
18:56:39.930,0.61035,0.19873,0.57568;
18:56:39.940,0.83789,0.42822,0.45020;
18:56:39.950,0.90210,0.28857,0.49829;
18:56:39.960,0.98657,0.35596,0.65259;
18:56:39.970,1.06519,0.49072,0.61743;
18:56:39.980,1.17285,0.56616,0.58008;
18:56:39.990,1.28906,0.53638,0.54810;
18:56:40.000,1.35693,0.47485,0.55420;
18:56:40.010,1.37427,0.41357,0.60547;
18:56:40.020,1.36646,0.39087,0.66577;
18:56:40.030,1.33545,0.42700,0.69678;
18:56:40.040,1.28320,0.46997,0.68726;
18:56:40.050,1.22485,0.48608,0.63672;
18:56:40.060,1.20410,0.47925,0.56519;
18:56:40.070,1.21753,0.48438,0.49316;
18:56:40.080,1.21143,0.50391,0.43774;
18:56:40.090,1.18457,0.49072,0.41846;
18:56:40.100,1.14893,0.43164,0.44312;
18:56:40.110,1.12207,0.39185,0.47754;
18:56:40.120,1.11938,0.36499,0.50293;
18:56:40.130,1.13306,0.30591,0.49634;
18:56:40.140,1.15552,0.27832,0.45386;
18:56:40.150,1.17969,0.31030,0.38672;
18:56:40.160,1.18921,0.35645,0.32080;
18:56:40.170,1.18262,0.35205,0.29199;
18:56:40.180,1.18140,0.29053,0.29565;
18:56:40.190,1.13208,0.23755,0.32837;
18:56:40.200,1.02222,0.36035,0.30640;
18:56:40.210,1.01611,0.39795,0.25854;
18:56:40.220,1.07739,0.30835,0.15332;
18:56:40.230,1.05371,0.13477,0.21069;
18:56:40.240,1.05249,0.13989,0.18188;
18:56:40.250,1.05347,0.17676,0.16138;
18:56:40.260,1.04175,0.26196,0.18018;
18:56:40.270,1.01050,0.32910,0.20288;
18:56:40.280,0.99170,0.27515,0.22388;
18:56:40.290,0.99536,0.12915,0.22583;
18:56:40.300,1.01025,0.01270,0.16113;
18:56:40.310,1.04346,-0.03638,0.10132;
18:56:40.320,1.08545,-0.01172,0.09595;
18:56:40.330,1.10034,0.00610,0.13135;
18:56:40.340,1.07007,0.00635,0.22607;
18:56:40.350,1.00757,0.06738,0.33398;
18:56:40.360,0.97803,0.13965,0.34863;
18:56:40.370,1.00269,0.08447,0.29614;
18:56:40.380,1.03979,-0.03198,0.25537;
18:56:40.390,1.05786,-0.07056,0.24438;
18:56:40.400,1.05884,-0.04224,0.24634;
18:56:40.410,1.04663,-0.00220,0.27563;
18:56:40.420,1.01563,0.03638,0.36475;
18:56:40.430,0.99048,0.08154,0.40503;
18:56:40.440,0.99268,0.04663,0.35596;
18:56:40.450,1.00439,-0.02393,0.28857;
18:56:40.460,1.01221,-0.04297,0.23804;
18:56:40.470,1.03833,-0.02686,0.22070;
18:56:40.480,1.05981,-0.01807,0.27393;
18:56:40.490,1.03394,0.01929,0.36523;
18:56:40.500,1.01318,0.04224,0.38208;
18:56:40.510,1.02490,-0.00659,0.31470;
18:56:40.520,0.99414,-0.03882,0.29150;
18:56:40.530,1.02905,0.04663,0.35352;
18:56:40.540,1.08203,-0.02002,0.34131;
18:56:40.550,1.07617,-0.08008,0.28003;
18:56:40.560,1.04468,-0.08521,0.22754;
18:56:40.570,1.00195,-0.05127,0.20313;
18:56:40.580,0.97339,-0.01367,0.19116;
18:56:40.590,0.97632,0.01880,0.21338;
18:56:40.600,0.96704,0.04028,0.25439;
18:56:40.610,0.97241,0.01465,0.26099;
18:56:40.620,0.99097,-0.02344,0.23804;
18:56:40.630,0.99048,-0.02539,0.20605;
18:56:40.640,0.97900,0.00586,0.17725;
18:56:40.650,0.96851,0.02393,0.16162;
18:56:40.660,0.96045,0.01904,0.16235;
18:56:40.670,0.96069,0.02686,0.17798;
18:56:40.680,0.98145,0.01172,0.20850;
18:56:40.690,0.99878,-0.01611,0.24438;
18:56:40.700,1.00366,-0.02881,0.27686;
18:56:40.710,1.00146,-0.00854,0.31006;
18:56:40.720,0.99658,0.03735,0.31323;
18:56:40.730,0.98755,0.05957,0.29175;
18:56:40.740,0.97241,0.07593,0.26172;
18:56:40.750,0.97632,0.07153,0.24487;
18:56:40.760,0.99146,0.04175,0.24414;
18:56:40.770,1.00952,0.01904,0.26025;
18:56:40.780,1.01123,0.02490,0.29834;
18:56:40.790,1.00269,0.03955,0.33691;
18:56:40.800,1.00464,0.03296,0.34497;
18:56:40.810,1.00000,0.02563,0.32495;
18:56:40.820,0.99023,0.03857,0.29004;
18:56:40.830,1.00439,0.03540,0.27124;
18:56:40.840,1.02319,0.01709,0.27515;
18:56:40.850,1.01807,0.02563,0.28784;
18:56:40.860,1.00415,0.02441,0.30469;
18:56:40.870,0.98999,0.01636,0.31836;
18:56:40.880,0.97314,0.03052,0.32617;
18:56:40.890,0.97363,0.03564,0.31714;
18:56:40.900,0.97241,0.05127,0.30518;
18:56:40.910,0.97925,0.06030,0.29932;
18:56:40.920,0.98438,0.05200,0.30469;
18:56:40.930,0.98877,0.03369,0.30469;
18:56:40.940,0.98560,0.03003,0.30371;
18:56:40.950,0.98291,0.02295,0.31201;
18:56:40.960,0.97241,-0.00024,0.33374;
18:56:40.970,0.95996,0.00098,0.35425;
18:56:40.980,0.96191,0.01611,0.35132;
18:56:40.990,0.97412,0.03320,0.33105;
18:56:41.000,0.98901,0.02368,0.30371;
18:56:41.010,0.99194,0.01343,0.27930;
18:56:41.020,0.99854,0.01147,0.26099;
18:56:41.030,1.00269,0.01831,0.26392;
18:56:41.040,0.99536,0.04541,0.27197;
18:56:41.050,0.99756,0.05884,0.28467;
18:56:41.060,1.00220,0.03174,0.29761;
18:56:41.070,0.99561,-0.01392,0.30029;
18:56:41.080,0.99536,-0.03076,0.29492;
18:56:41.090,0.99194,-0.00513,0.28540;
18:56:41.100,0.98389,0.02148,0.29126;
18:56:41.110,0.97729,0.03125,0.29077;
18:56:41.120,0.97705,0.03491,0.28784;
18:56:41.130,0.98511,0.01611,0.28418;
18:56:41.140,0.99121,-0.00146,0.28320;
18:56:41.150,0.99268,0.00342,0.26978;
18:56:41.160,0.99048,-0.01196,0.27173;
18:56:41.170,0.98120,0.01343,0.29053;
18:56:41.180,0.97144,0.03247,0.30225;
18:56:41.190,0.96484,0.05176,0.29736;
18:56:41.200,0.96265,0.06543,0.27466;
18:56:41.210,0.95776,0.07446,0.25659;
18:56:41.220,0.96289,0.08496,0.27319;
18:56:41.230,0.95093,0.08423,0.32080;
18:56:41.240,0.93945,0.07910,0.35962;
18:56:41.250,0.94995,0.06812,0.37939;
18:56:41.260,0.94751,0.08350,0.40479;
18:56:41.270,0.92651,0.10327,0.41138;
18:56:41.280,0.91626,0.09863,0.36572;
18:56:41.290,0.93701,0.11621,0.31030;
18:56:41.300,0.96436,0.09814,0.30566;
18:56:41.310,0.95996,0.04785,0.33545;
18:56:41.320,0.94409,0.04834,0.36719;
18:56:41.330,0.97046,0.08179,0.40869;
18:56:41.340,0.98682,0.10034,0.46045;
18:56:41.350,0.96387,0.10693,0.48926;
18:56:41.360,0.95728,0.08618,0.47290;
18:56:41.370,0.97119,0.06763,0.37988;
18:56:41.380,0.99194,0.06372,0.29468;
18:56:41.390,0.99731,0.05469,0.31079;
18:56:41.400,0.98169,0.11523,0.38574;
18:56:41.410,0.95508,0.18188,0.46631;
18:56:41.420,0.93408,0.14014,0.47681;
18:56:41.430,0.93726,0.08936,0.42065;
18:56:41.440,0.98169,0.03662,0.24121;
18:56:41.450,0.98315,-0.04053,0.23853;
18:56:41.460,0.98853,-0.06006,0.26538;
18:56:41.470,0.99072,-0.02783,0.28687;
18:56:41.480,1.00098,-0.02881,0.27075;
18:56:41.490,1.01660,-0.01074,0.23828;
18:56:41.500,1.02637,0.00000,0.23755;
18:56:41.510,1.01196,-0.05908,0.25269;
18:56:41.520,1.01001,-0.07813,0.26855;
18:56:41.530,1.03247,-0.06177,0.26514;
18:56:41.540,1.03076,-0.03638,0.25879;
18:56:41.550,1.05957,-0.03564,0.26782;
18:56:41.560,1.06885,-0.04785,0.27563;
18:56:41.570,1.05786,-0.03174,0.29248;
18:56:41.580,1.04492,0.01221,0.27759;
18:56:41.590,1.03394,0.01025,0.24170;
18:56:41.600,1.02295,0.02661,0.22681;
18:56:41.610,1.01025,0.01221,0.23462;
18:56:41.620,0.99365,-0.00659,0.25269;
18:56:41.630,0.99561,-0.00098,0.26025;
18:56:41.640,0.99829,-0.03760,0.26978;
18:56:41.650,0.99194,-0.03760,0.27832;
18:56:41.660,0.98682,-0.02173,0.27954;
18:56:41.670,0.98950,-0.04175,0.28076;
18:56:41.680,1.00537,0.04126,0.31128;
18:56:41.690,0.99951,0.03613,0.29175;
18:56:41.700,0.99316,0.02856,0.29004;
18:56:41.710,0.97656,0.02466,0.30811;
18:56:41.720,0.96094,0.05103,0.32813;
18:56:41.730,0.95288,0.04785,0.33325;
18:56:41.740,0.95068,0.02881,0.33057;
18:56:41.750,0.95801,0.09009,0.33691;
18:56:41.760,0.96899,0.13599,0.34644;
18:56:41.770,0.97681,0.08350,0.34961;
18:56:41.780,0.96826,0.05981,0.35596;
18:56:41.790,0.95288,0.05078,0.35303;
18:56:41.800,0.94629,0.03345,0.34497;
18:56:41.810,0.95410,0.04590,0.33447;
18:56:41.820,0.96924,0.06396,0.32642;
18:56:41.830,0.97388,0.08374,0.33374;
18:56:41.840,0.97705,0.07397,0.34570;
18:56:41.850,0.97754,0.05029,0.36670;
18:56:41.860,0.96338,0.05908,0.37842;
18:56:41.870,0.96387,0.04980,0.35962;
18:56:41.880,0.96313,0.04736,0.33350;
18:56:41.890,0.96167,0.04712,0.31934;
18:56:41.900,0.95874,0.08154,0.31714;
18:56:41.910,0.96997,0.09546,0.32886;
18:56:41.920,0.95020,0.07031,0.35645;
18:56:41.930,0.94556,0.08325,0.35889;
18:56:41.940,0.95825,0.04712,0.34204;
18:56:41.950,0.96387,0.01831,0.31787;
18:56:41.960,0.97461,0.05444,0.30933;
18:56:41.970,0.96045,0.05762,0.31299;
18:56:41.980,0.96387,0.02710,0.33740;
18:56:41.990,0.98755,0.01953,0.32007;
18:56:42.000,0.99976,-0.01660,0.28906;
18:56:42.010,1.00146,-0.02002,0.29956;
18:56:42.020,1.00244,0.01660,0.32178;
18:56:42.030,0.98682,0.05640,0.35400;
18:56:42.040,0.99512,0.02783,0.34302;
18:56:42.050,0.99512,0.00342,0.31787;
18:56:42.060,0.98535,0.02466,0.30029;
18:56:42.070,0.98413,0.01147,0.27856;
18:56:42.080,0.97876,0.00830,0.28027;
18:56:42.090,0.98877,0.00635,0.28174;
18:56:42.100,0.98438,0.01733,0.30127;
18:56:42.110,0.98560,-0.00610,0.30933;
18:56:42.120,0.97388,0.04028,0.31958;
18:56:42.130,0.97900,0.04590,0.32422;
18:56:42.140,0.96924,-0.01147,0.32178;
18:56:42.150,0.96899,0.00073,0.30981;
18:56:42.160,0.98511,0.01440,0.28711;
18:56:42.170,0.99316,0.00171,0.29712;
18:56:42.180,0.98853,-0.00122,0.29810;
18:56:42.190,0.97339,0.03149,0.29517;
18:56:42.200,0.98340,0.02417,0.30127;
18:56:42.210,0.97925,0.02002,0.28931;
18:56:42.220,0.97607,0.03857,0.28979;
18:56:42.230,0.97388,0.03149,0.30493;
18:56:42.240,0.97974,0.02954,0.31104;
18:56:42.250,0.98462,0.03369,0.30981;
18:56:42.260,0.98755,0.02710,0.30566;
18:56:42.270,0.99121,0.02563,0.30103;
18:56:42.280,0.98804,0.02832,0.31519;
18:56:42.290,0.98535,0.03198,0.33398;
18:56:42.300,0.98950,0.02148,0.30933;
18:56:42.310,0.98291,0.02979,0.33276;
18:56:42.320,0.98657,0.02466,0.32715;
18:56:42.330,0.98682,0.01099,0.32373;
18:56:42.340,0.98096,0.01416,0.32568;
18:56:42.350,0.98413,0.01978,0.31494;
18:56:42.360,0.98535,0.02612,0.30493;
18:56:42.370,0.97656,0.03198,0.29492;
18:56:42.380,0.97437,0.02271,0.29419;
18:56:42.390,0.96899,0.03589,0.30322;
18:56:42.400,0.96484,0.04517,0.30518;
18:56:42.410,0.96533,0.03540,0.30786;
18:56:42.420,0.97314,0.02466,0.31616;
18:56:42.430,0.98145,0.02197,0.32056;
18:56:42.440,0.98804,0.02930,0.31665;
18:56:42.450,0.98389,0.04785,0.30127;
18:56:42.460,0.98071,0.05054,0.28662;
18:56:42.470,0.98096,0.04199,0.28613;
18:56:42.480,0.98315,0.03516,0.29028;
18:56:42.490,0.98413,0.03247,0.29907;
18:56:42.500,0.97974,0.03955,0.31714;
18:56:42.510,0.97559,0.03613,0.33447;
18:56:42.520,0.97461,0.03394,0.33667;
18:56:42.530,0.98242,0.03247,0.32471;
18:56:42.540,0.98657,0.04053,0.30664;
18:56:42.550,0.99097,0.04297,0.30298;
18:56:42.560,0.99146,0.03564,0.31372;
18:56:42.570,0.98462,0.03906,0.31787;
18:56:42.580,0.97925,0.03564,0.32324;
18:56:42.590,0.98047,0.02173,0.32788;
18:56:42.600,0.98682,0.03540,0.33154;
18:56:42.610,0.98730,0.02661,0.32813;
18:56:42.620,0.98755,0.02148,0.31641;
18:56:42.630,0.98560,0.02026,0.30762;
18:56:42.640,0.97827,0.02222,0.30103;
18:56:42.650,0.97046,0.02100,0.30005;
18:56:42.660,0.97021,0.04443,0.29370;
18:56:42.670,0.97949,0.04419,0.29590;
18:56:42.680,0.98486,0.02417,0.30713;
18:56:42.690,0.97559,0.03955,0.31689;
18:56:42.700,0.97583,0.04370,0.32007;
18:56:42.710,0.98169,0.01147,0.31055;
18:56:42.720,0.97632,0.02026,0.30493;
18:56:42.730,0.97681,0.02539,0.30737;
18:56:42.740,0.97217,0.02148,0.31201;
18:56:42.750,0.97339,0.02539,0.31030;
18:56:42.760,0.97559,0.02002,0.31055;
18:56:42.770,0.97559,0.02637,0.31274;
18:56:42.780,0.97437,0.02344,0.31372;
18:56:42.790,0.97168,0.02612,0.31665;
18:56:42.800,0.97070,0.04443,0.31519;
18:56:42.810,0.97803,0.04663,0.30957;
18:56:42.820,0.98438,0.04395,0.31592;
18:56:42.830,0.97729,0.03516,0.32202;
18:56:42.840,0.96875,0.05078,0.31885;
18:56:42.850,0.96924,0.09204,0.32080;
18:56:42.860,0.98438,0.03052,0.33618;
18:56:42.870,0.98120,0.04810,0.34790;
18:56:42.880,0.98828,0.08228,0.34082;
18:56:42.890,0.99414,0.06763,0.32056;
18:56:42.900,0.96875,0.05981,0.31567;
18:56:42.910,0.96704,0.05615,0.30737;
18:56:42.920,0.97461,0.04004,0.30737;
18:56:42.930,0.98560,0.04321,0.31323;
18:56:42.940,0.98804,0.04565,0.31616;
18:56:42.950,0.98560,0.03223,0.31152;
18:56:42.960,0.98633,0.03101,0.30591;
18:56:42.970,0.98730,0.03345,0.29736;
18:56:42.980,0.98999,0.03491,0.29492;
18:56:42.990,0.99243,0.02661,0.30786;
18:56:43.000,0.99536,0.01099,0.31543;
18:56:43.010,0.98926,0.01904,0.32080;
18:56:43.020,0.98755,0.02124,0.32056;
18:56:43.030,0.99390,0.00806,0.30347;
18:56:43.040,0.99243,0.01025,0.29980;
18:56:43.050,0.98999,0.02002,0.30029;
18:56:43.060,0.98950,0.03271,0.30078;
18:56:43.070,0.98218,0.03296,0.29736;
18:56:43.080,0.98242,0.02856,0.29419;
18:56:43.090,0.98364,0.02466,0.29492;
18:56:43.100,0.99243,0.01758,0.29712;
18:56:43.110,0.99731,0.02490,0.30371;
18:56:43.120,0.98926,0.03784,0.30811;
18:56:43.130,0.99097,0.03394,0.30811;
18:56:43.140,0.98975,0.03198,0.31104;
18:56:43.150,0.98291,0.04932,0.31079;
18:56:43.160,0.98071,0.04663,0.30664;
18:56:43.170,0.97583,0.04736,0.30469;
18:56:43.180,0.97437,0.04688,0.30176;
18:56:43.190,0.97510,0.04004,0.30542;
18:56:43.200,0.97314,0.05981,0.29810;
18:56:43.210,0.97046,0.07910,0.32520;
18:56:43.220,0.97144,0.07495,0.31787;
18:56:43.230,0.97437,0.05371,0.31641;
18:56:43.240,0.97144,0.05762,0.31787;
18:56:43.250,0.97339,0.06152,0.31909;
18:56:43.260,0.97070,0.05664,0.33276;
18:56:43.270,0.96484,0.06348,0.33936;
18:56:43.280,0.97412,0.06348,0.34253;
18:56:43.290,0.98291,0.04028,0.34326;
18:56:43.300,0.98267,0.03418,0.34521;
18:56:43.310,0.97778,0.05225,0.35181;
18:56:43.320,0.97437,0.05469,0.34619;
18:56:43.330,0.96802,0.05396,0.34180;
18:56:43.340,0.96362,0.04688,0.33887;
18:56:43.350,0.96533,0.04004,0.33545;
18:56:43.360,0.97119,0.04150,0.33398;
18:56:43.370,0.97705,0.04419,0.32495;
18:56:43.380,0.98633,0.03516,0.31104;
18:56:43.390,0.99658,0.02368,0.29443;
18:56:43.400,1.00000,0.02881,0.28833;
18:56:43.410,1.00049,0.03125,0.28809;
18:56:43.420,0.99536,0.02686,0.28687;
18:56:43.430,0.99414,0.02490,0.28711;
18:56:43.440,0.98828,0.03076,0.29102;
18:56:43.450,0.98584,0.04053,0.29028;
18:56:43.460,0.98975,0.04468,0.28784;
18:56:43.470,0.98218,0.04858,0.29395;
18:56:43.480,0.97681,0.04272,0.29663;
18:56:43.490,0.97827,0.03979,0.28955;
18:56:43.500,0.98706,0.06006,0.29053;
18:56:43.510,0.99805,0.02832,0.31543;
18:56:43.520,0.99292,0.03638,0.32666;
18:56:43.530,0.98730,0.05469,0.33130;
18:56:43.540,0.98145,0.05908,0.32910;
18:56:43.550,0.97192,0.04980,0.32153;
18:56:43.560,0.96997,0.03784,0.30957;
18:56:43.570,0.97559,0.04517,0.31006;
18:56:43.580,0.97949,0.06372,0.30884;
18:56:43.590,0.98218,0.06665,0.31641;
18:56:43.600,0.97974,0.06787,0.33496;
18:56:43.610,0.97852,0.06470,0.34009;
18:56:43.620,0.97681,0.06104,0.34229;
18:56:43.630,0.97021,0.07153,0.34155;
18:56:43.640,0.96582,0.06006,0.33374;
18:56:43.650,0.96509,0.04785,0.32373;
18:56:43.660,0.96704,0.06787,0.31787;
18:56:43.670,0.96606,0.07104,0.31860;
18:56:43.680,0.96313,0.06274,0.31909;
18:56:43.690,0.96509,0.06787,0.32983;
18:56:43.700,0.97290,0.06519,0.33569;
18:56:43.710,0.97729,0.04858,0.34009;
18:56:43.720,0.97656,0.04688,0.34131;
18:56:43.730,0.97998,0.05151,0.32275;
18:56:43.740,0.98364,0.05029,0.30908;
18:56:43.750,0.98047,0.05322,0.30322;
18:56:43.760,0.97510,0.04858,0.30688;
18:56:43.770,0.97510,0.04053,0.30249;
18:56:43.780,0.98071,0.04126,0.29541;
18:56:43.790,0.98315,0.03955,0.29419;
18:56:43.800,0.97681,0.03174,0.28760;
18:56:43.810,0.98804,0.02808,0.28296;
18:56:43.820,0.99341,0.02710,0.29492;
18:56:43.830,0.99634,0.02417,0.30103;
18:56:43.840,0.99805,0.02930,0.29980;
18:56:43.850,0.99731,0.03247,0.29492;
18:56:43.860,0.98950,0.03442,0.29614;
18:56:43.870,0.98340,0.04663,0.29932;
18:56:43.880,0.98486,0.04028,0.30054;
18:56:43.890,0.98706,0.04712,0.30298;
18:56:43.900,0.98853,0.05322,0.30396;
18:56:43.910,0.98975,0.04663,0.30518;
18:56:43.920,0.99121,0.04712,0.30884;
18:56:43.930,0.99048,0.04370,0.31226;
18:56:43.940,0.98682,0.04443,0.31860;
18:56:43.950,0.98145,0.03735,0.31860;
18:56:43.960,0.97803,0.03613,0.31714;
18:56:43.970,0.98120,0.04102,0.31226;
18:56:43.980,0.98413,0.03760,0.31006;
18:56:43.990,0.98389,0.03320,0.31030;
18:56:44.000,0.97778,0.03589,0.31201;
18:56:44.010,0.97485,0.04028,0.31543;
18:56:44.020,0.97974,0.03491,0.31079;
18:56:44.030,0.98047,0.03418,0.31372;
18:56:44.040,0.97827,0.03345,0.31006;
18:56:44.050,0.97559,0.03467,0.30322;
18:56:44.060,0.96875,0.03833,0.29541;
18:56:44.070,0.96313,0.03906,0.29419;
18:56:44.080,0.96362,0.03931,0.29736;
18:56:44.090,0.96338,0.04102,0.29785;
18:56:44.100,0.96729,0.02832,0.29639;
18:56:44.110,0.96851,0.03101,0.29785;
18:56:44.120,0.98315,0.04053,0.30566;
18:56:44.130,0.98901,0.02881,0.30664;
18:56:44.140,0.99463,0.02979,0.31152;
18:56:44.150,0.99194,0.05151,0.31714;
18:56:44.160,0.98291,0.06055,0.31714;
18:56:44.170,0.97241,0.06763,0.32666;
18:56:44.180,0.96680,0.07300,0.32397;
18:56:44.190,0.96899,0.07324,0.31714;
18:56:44.200,0.97095,0.07275,0.30786;
18:56:44.210,0.97510,0.07886,0.29736;
18:56:44.220,0.98047,0.07568,0.29907;
18:56:44.230,0.98022,0.07349,0.29639;
18:56:44.240,0.98193,0.07300,0.29077;
18:56:44.250,0.98926,0.06274,0.29761;
18:56:44.260,0.98560,0.06714,0.29980;
18:56:44.270,0.97803,0.06812,0.29224;
18:56:44.280,0.96851,0.06567,0.28955;
18:56:44.290,0.96045,0.06885,0.28979;
18:56:44.300,0.96265,0.06177,0.29468;
18:56:44.310,0.97485,0.06812,0.30371;
18:56:44.320,0.97803,0.08008,0.30688;
18:56:44.330,0.98535,0.06665,0.31079;
18:56:44.340,0.98560,0.06177,0.31689;
18:56:44.350,0.97363,0.07007,0.32129;
18:56:44.360,0.96826,0.06396,0.32861;
18:56:44.370,0.96997,0.06372,0.33154;
18:56:44.380,0.97192,0.08057,0.34106;
18:56:44.390,0.96875,0.07959,0.34644;
18:56:44.400,0.96509,0.07690,0.34668;
18:56:44.410,0.97998,0.06689,0.35181;
18:56:44.420,0.98169,0.06421,0.34570;
18:56:44.430,0.97852,0.06250,0.32983;
18:56:44.440,0.97607,0.04395,0.32373;
18:56:44.450,0.95898,0.06836,0.33130;
18:56:44.460,0.94922,0.08618,0.32910;
18:56:44.470,0.95728,0.05737,0.32007;
18:56:44.480,0.96362,0.05249,0.30835;
18:56:44.490,0.96753,0.06152,0.29907;
18:56:44.500,0.96704,0.06299,0.29785;
18:56:44.510,0.96094,0.07788,0.30249;
18:56:44.520,0.95313,0.09619,0.31372;
18:56:44.530,0.95239,0.12354,0.31152;
18:56:44.540,0.94409,0.14648,0.30249;
18:56:44.550,0.93994,0.14624,0.30981;
18:56:44.560,0.94653,0.14624,0.33032;
18:56:44.570,0.94556,0.11279,0.35059;
18:56:44.580,0.93896,0.06689,0.34204;
18:56:44.590,0.93872,0.06128,0.32202;
18:56:44.600,0.92310,0.07446,0.31543;
18:56:44.610,0.91919,0.07886,0.31787;
18:56:44.620,0.92798,0.10742,0.32739;
18:56:44.630,0.92432,0.11743,0.35547;
18:56:44.640,0.94336,0.06836,0.34961;
18:56:44.650,0.96118,0.04565,0.31201;
18:56:44.660,0.97803,0.05566,0.30078;
18:56:44.670,0.98608,0.05981,0.31494;
18:56:44.680,0.99072,0.07959,0.32471;
18:56:44.690,1.00439,0.11182,0.32056;
18:56:44.700,1.01660,0.13525,0.32031;
18:56:44.710,1.01611,0.14917,0.33960;
18:56:44.720,1.01440,0.14746,0.34570;
18:56:44.730,1.03320,0.06421,0.31934;
18:56:44.740,1.04517,0.03174,0.27466;
18:56:44.750,1.06152,0.01050,0.24194;
18:56:44.760,1.07104,0.00195,0.23022;
18:56:44.770,1.05005,0.03125,0.23657;
18:56:44.780,1.03857,0.03271,0.24731;
18:56:44.790,1.02979,0.02051,0.26514;
18:56:44.800,1.02954,0.00659,0.29712;
18:56:44.810,1.03320,-0.00635,0.31421;
18:56:44.820,1.02515,-0.00122,0.31689;
18:56:44.830,1.01685,0.02905,0.31274;
18:56:44.840,1.00610,0.06445,0.31055;
18:56:44.850,0.99316,0.07446,0.30688;
18:56:44.860,0.99854,0.07349,0.30127;
18:56:44.870,0.99292,0.10010,0.28687;
18:56:44.880,0.99146,0.07471,0.25830;
18:56:44.890,1.00244,0.03491,0.23291;
18:56:44.900,0.98828,0.05518,0.22095;
18:56:44.910,0.99268,0.02051,0.22437;
18:56:44.920,0.96826,0.05200,0.25098;
18:56:44.930,0.92725,0.14087,0.29443;
18:56:44.940,0.94287,0.19897,0.32080;
18:56:44.950,0.95337,0.15894,0.35791;
18:56:44.960,0.96680,0.12622,0.37085;
18:56:44.970,0.98779,0.11670,0.35864;
18:56:44.980,0.99023,0.09863,0.34766;
18:56:44.990,1.00122,0.08374,0.31934;
18:56:45.000,1.01318,0.04614,0.29395;
18:56:45.010,1.00000,0.04590,0.30786;
18:56:45.020,0.99146,0.06543,0.30127;
18:56:45.030,0.98462,0.09155,0.31055;
18:56:45.040,0.97974,0.08472,0.30615;
18:56:45.050,0.97803,0.07520,0.29517;
18:56:45.060,0.97388,0.06543,0.28638;
18:56:45.070,0.98926,0.03931,0.26880;
18:56:45.080,1.00342,0.03223,0.23047;
18:56:45.090,1.00708,0.04419,0.19604;
18:56:45.100,1.01782,0.05688,0.14038;
18:56:45.110,1.03003,0.12500,0.08252;
18:56:45.120,1.04272,0.22266,0.13330;
18:56:45.130,0.99805,0.26514,0.28467;
18:56:45.140,0.94385,0.27612,0.36523;
18:56:45.150,0.92944,0.24463,0.39185;
18:56:45.160,0.93799,0.13721,0.38110;
18:56:45.170,0.94971,0.05518,0.34009;
18:56:45.180,0.95947,0.03662,0.31689;
18:56:45.190,0.99219,0.03369,0.31836;
18:56:45.200,1.03174,0.07642,0.34131;
18:56:45.210,1.04175,0.14380,0.34009;
18:56:45.220,1.02271,0.14478,0.30884;
18:56:45.230,1.01465,0.12573,0.31763;
18:56:45.240,1.03345,0.11621,0.33862;
18:56:45.250,1.06763,0.10913,0.30640;
18:56:45.260,1.08179,0.08203,0.27686;
18:56:45.270,1.07983,0.01465,0.24878;
18:56:45.280,1.08472,0.02661,0.24048;
18:56:45.290,1.10229,0.11426,0.26880;
18:56:45.300,1.11450,0.23169,0.30200;
18:56:45.310,1.12573,0.28540,0.32544;
18:56:45.320,1.14209,0.22021,0.34009;
18:56:45.330,1.15771,0.15161,0.40063;
18:56:45.340,1.15161,0.16577,0.47510;
18:56:45.350,1.09619,0.22241,0.41138;
18:56:45.360,0.94922,0.09790,0.20093;
18:56:45.370,0.92847,0.34106,0.16577;
18:56:45.380,0.94751,0.27222,0.25415;
18:56:45.390,0.91382,0.10352,0.34863;
18:56:45.400,0.87451,-0.00806,0.39502;
18:56:45.410,0.87695,0.06519,0.38403;
18:56:45.420,0.89648,0.15552,0.35083;
18:56:45.430,0.90308,0.16748,0.32642;
18:56:45.440,0.89722,0.14697,0.27856;
18:56:45.450,0.91846,0.17456,0.24072;
18:56:45.460,0.98169,0.27271,0.22363;
18:56:45.470,1.02368,0.28174,0.23169;
18:56:45.480,1.01514,0.15967,0.29736;
18:56:45.490,1.00122,0.04419,0.34277;
18:56:45.500,0.99536,0.05029,0.34863;
18:56:45.510,0.98022,0.14600,0.31763;
18:56:45.520,0.96118,0.20581,0.28271;
18:56:45.530,0.94092,0.24243,0.25220;
18:56:45.540,0.90625,0.27539,0.19800;
18:56:45.550,0.88379,0.25220,0.15015;
18:56:45.560,0.86719,0.21582,0.15625;
18:56:45.570,1.00122,0.12036,0.26733;
18:56:45.580,1.06982,0.11401,0.21680;
18:56:45.590,1.12744,0.27490,0.15283;
18:56:45.600,1.08105,0.30005,0.12524;
18:56:45.610,1.06543,0.28979,0.11816;
18:56:45.620,1.07251,0.27563,0.13867;
18:56:45.630,1.10132,0.26709,0.16846;
18:56:45.640,1.12036,0.25757,0.19824;
18:56:45.650,1.11499,0.28320,0.19019;
18:56:45.660,1.10986,0.34912,0.13330;
18:56:45.670,1.11084,0.38574,0.09180;
18:56:45.680,1.09302,0.37549,0.11206;
18:56:45.690,1.07056,0.36865,0.17773;
18:56:45.700,1.06592,0.39331,0.20728;
18:56:45.710,1.07471,0.37402,0.21729;
18:56:45.720,1.07324,0.33984,0.20776;
18:56:45.730,1.05469,0.34570,0.20581;
18:56:45.740,1.04077,0.34619,0.19775;
18:56:45.750,1.01343,0.34033,0.19141;
18:56:45.760,0.98975,0.30811,0.19287;
18:56:45.770,0.97485,0.28687,0.20117;
18:56:45.780,0.97095,0.30542,0.21655;
18:56:45.790,0.98511,0.35205,0.20068;
18:56:45.800,0.99219,0.39307,0.17065;
18:56:45.810,0.99829,0.40503,0.14746;
18:56:45.820,1.00513,0.47559,0.11084;
18:56:45.830,1.00830,0.49170,0.13062;
18:56:45.840,1.00684,0.49927,0.16089;
18:56:45.850,1.02197,0.54614,0.18091;
18:56:45.860,1.04956,0.60059,0.17651;
18:56:45.870,1.05322,0.58716,0.16626;
18:56:45.880,1.03369,0.54614,0.13623;
18:56:45.890,0.95288,0.47070,0.11841;
18:56:45.900,0.88062,0.37891,0.11865;
18:56:45.910,0.86719,0.35620,0.10791;
18:56:45.920,0.84668,0.33154,0.09326;
18:56:45.930,0.80835,0.27100,0.07861;
18:56:45.940,0.77344,0.22510,0.05908;
18:56:45.950,0.76514,0.23096,0.03735;
18:56:45.960,0.76514,0.25098,0.00928;
18:56:45.970,0.76733,0.25513,-0.01172;
18:56:45.980,0.76270,0.26196,-0.00684;
18:56:45.990,0.76758,0.30151,0.03223;
18:56:46.000,0.78467,0.34033,0.08740;
18:56:46.010,0.79395,0.36108,0.12231;
18:56:46.020,0.80249,0.39380,0.16016;
18:56:46.030,0.80884,0.43994,0.18115;
18:56:46.040,0.80469,0.48828,0.16724;
18:56:46.050,0.78906,0.52051,0.15894;
18:56:46.060,0.78613,0.55078,0.15527;
18:56:46.070,0.80371,0.58496,0.13550;
18:56:46.080,0.81934,0.59082,0.11890;
18:56:46.090,0.82129,0.55396,0.11133;
18:56:46.100,0.81226,0.51221,0.09888;
18:56:46.110,0.79346,0.49097,0.10474;
18:56:46.120,0.77490,0.45996,0.11279;
18:56:46.130,0.76514,0.42896,0.11963;
18:56:46.140,0.75439,0.42090,0.12207;
18:56:46.150,0.73291,0.44189,0.11255;
18:56:46.160,0.71704,0.46704,0.10742;
18:56:46.170,0.71240,0.47949,0.09985;
18:56:46.180,0.71069,0.48511,0.09985;
18:56:46.190,0.70581,0.53198,0.12793;
18:56:46.200,0.68628,0.54126,0.14624;
18:56:46.210,0.68506,0.59619,0.16040;
18:56:46.220,0.68970,0.65894,0.16211;
18:56:46.230,0.70459,0.70947,0.14331;
18:56:46.240,0.71606,0.73706,0.13208;
18:56:46.250,0.73462,0.73608,0.11646;
18:56:46.260,0.76050,0.73950,0.09009;
18:56:46.270,0.77002,0.73999,0.07251;
18:56:46.280,0.79346,0.62305,0.02856;
18:56:46.290,0.79639,0.58960,0.01978;
18:56:46.300,0.81152,0.56152,0.00977;
18:56:46.310,0.82422,0.53589,-0.00781;
18:56:46.320,0.83374,0.51514,-0.02002;
18:56:46.330,0.84937,0.50586,-0.02295;
18:56:46.340,0.86182,0.50684,-0.02368;
18:56:46.350,0.87354,0.51880,-0.01733;
18:56:46.360,0.87964,0.53003,-0.00928;
18:56:46.370,0.88306,0.54297,-0.00220;
18:56:46.380,0.88354,0.54858,0.00317;
18:56:46.390,0.88452,0.54639,0.00293;
18:56:46.400,0.88916,0.55615,0.01025;
18:56:46.410,0.89551,0.56909,0.01416;
18:56:46.420,0.89746,0.56689,0.02344;
18:56:46.430,0.89868,0.56006,0.03271;
18:56:46.440,0.89771,0.55762,0.03394;
18:56:46.450,0.89331,0.54688,0.03296;
18:56:46.460,0.89258,0.53613,0.03149;
18:56:46.470,0.89233,0.52832,0.03955;
18:56:46.480,0.89355,0.52563,0.04272;
18:56:46.490,0.88623,0.52124,0.04956;
18:56:46.500,0.88379,0.55615,0.05786;
18:56:46.510,0.88379,0.56592,0.05933;
18:56:46.520,0.87988,0.56787,0.05542;
18:56:46.530,0.87354,0.56592,0.04956;
18:56:46.540,0.86670,0.56909,0.04932;
18:56:46.550,0.86401,0.57910,0.05542;
18:56:46.560,0.85986,0.58252,0.07056;
18:56:46.570,0.85718,0.58911,0.08618;
18:56:46.580,0.85254,0.61157,0.08960;
18:56:46.590,0.84839,0.61377,0.09399;
18:56:46.600,0.85010,0.59546,0.09009;
18:56:46.610,0.85278,0.58887,0.07495;
18:56:46.620,0.85400,0.59058,0.06396;
18:56:46.630,0.85205,0.58716,0.05713;
18:56:46.640,0.84326,0.58716,0.04688;
18:56:46.650,0.83228,0.58594,0.04712;
18:56:46.660,0.83032,0.58203,0.05664;
18:56:46.670,0.83594,0.57959,0.07520;
18:56:46.680,0.85352,0.57715,0.09668;
18:56:46.690,0.86743,0.58472,0.10547;
18:56:46.700,0.86914,0.60156,0.10205;
18:56:46.710,0.85913,0.60571,0.08716;
18:56:46.720,0.84351,0.59619,0.06519;
18:56:46.730,0.84082,0.59521,0.04297;
18:56:46.740,0.84937,0.58789,0.03833;
18:56:46.750,0.85596,0.56104,0.04321;
18:56:46.760,0.86499,0.52930,0.06274;
18:56:46.770,0.87964,0.51953,0.07837;
18:56:46.780,0.87939,0.53760,0.08716;
18:56:46.790,0.86401,0.54834,0.07202;
18:56:46.800,0.84058,0.56470,0.05640;
18:56:46.810,0.81641,0.57861,0.05127;
18:56:46.820,0.80762,0.57715,0.06226;
18:56:46.830,0.80786,0.57715,0.07861;
18:56:46.840,0.80615,0.57397,0.09033;
18:56:46.850,0.80200,0.56421,0.09570;
18:56:46.860,0.79883,0.56982,0.09424;
18:56:46.870,0.80176,0.57837,0.08740;
18:56:46.880,0.80469,0.58081,0.07886;
18:56:46.890,0.81714,0.58911,0.07300;
18:56:46.900,0.82983,0.60571,0.06519;
18:56:46.910,0.83813,0.61304,0.05615;
18:56:46.920,0.84448,0.62134,0.04492;
18:56:46.930,0.84937,0.63770,0.03271;
18:56:46.940,0.85327,0.64087,0.02466;
18:56:46.950,0.84717,0.63184,0.01294;
18:56:46.960,0.84326,0.61792,0.01294;
18:56:46.970,0.84229,0.61450,0.01953;
18:56:46.980,0.84473,0.61426,0.02637;
18:56:46.990,0.85474,0.60791,0.03003;
18:56:47.000,0.86450,0.60352,0.02930;
18:56:47.010,0.86719,0.59961,0.02612;
18:56:47.020,0.85938,0.61035,0.01465;
18:56:47.030,0.84790,0.63647,0.00195;
18:56:47.040,0.83276,0.65576,-0.00269;
18:56:47.050,0.82251,0.66431,-0.00513;
18:56:47.060,0.82349,0.66040,0.00220;
18:56:47.070,0.82544,0.64746,0.01025;
18:56:47.080,0.82178,0.63623,0.02124;
18:56:47.090,0.80859,0.62524,0.03394;
18:56:47.100,0.79126,0.62231,0.02905;
18:56:47.110,0.77026,0.63208,0.02271;
18:56:47.120,0.77563,0.64844,0.03906;
18:56:47.130,0.77271,0.65088,0.04907;
18:56:47.140,0.77075,0.65137,0.04907;
18:56:47.150,0.77197,0.64746,0.04736;
18:56:47.160,0.77539,0.62280,0.05371;
18:56:47.170,0.77466,0.59985,0.04956;
18:56:47.180,0.78101,0.59912,0.03174;
18:56:47.190,0.78882,0.60229,0.01782;
18:56:47.200,0.79248,0.59790,0.01440;
18:56:47.210,0.80200,0.57422,0.01270;
18:56:47.220,0.82275,0.55762,0.01611;
18:56:47.230,0.84717,0.56665,0.02271;
18:56:47.240,0.86426,0.57104,0.02710;
18:56:47.250,0.87158,0.57715,0.03174;
18:56:47.260,0.87305,0.59448,0.03662;
18:56:47.270,0.87183,0.61353,0.02637;
18:56:47.280,0.86475,0.62354,0.01636;
18:56:47.290,0.85474,0.63086,0.01563;
18:56:47.300,0.84106,0.64038,0.01538;
18:56:47.310,0.83228,0.64185,0.02148;
18:56:47.320,0.82544,0.63794,0.03516;
18:56:47.330,0.81738,0.63306,0.04565;
18:56:47.340,0.80884,0.63452,0.04956;
18:56:47.350,0.80200,0.63281,0.05298;
18:56:47.360,0.79248,0.63306,0.04150;
18:56:47.370,0.78076,0.63672,0.03149;
18:56:47.380,0.77490,0.64478,0.02588;
18:56:47.390,0.77051,0.65356,0.02930;
18:56:47.400,0.76758,0.65527,0.03540;
18:56:47.410,0.76782,0.67651,0.03516;
18:56:47.420,0.77002,0.66846,0.02148;
18:56:47.430,0.77246,0.66406,0.00537;
18:56:47.440,0.77515,0.65503,-0.00439;
18:56:47.450,0.78125,0.64478,-0.01318;
18:56:47.460,0.78809,0.64722,-0.01953;
18:56:47.470,0.78735,0.65259,-0.02686;
18:56:47.480,0.78906,0.66040,-0.02808;
18:56:47.490,0.79590,0.66748,-0.02271;
18:56:47.500,0.79858,0.66211,-0.01416;
18:56:47.510,0.80151,0.66113,-0.01074;
18:56:47.520,0.78809,0.67651,-0.01465;
18:56:47.530,0.78003,0.67529,-0.01904;
18:56:47.540,0.78076,0.66309,-0.01563;
18:56:47.550,0.77954,0.65649,-0.01245;
18:56:47.560,0.77832,0.65942,-0.01099;
18:56:47.570,0.77490,0.66260,-0.01074;
18:56:47.580,0.77466,0.65527,-0.00342;
18:56:47.590,0.77393,0.65039,-0.00244;
18:56:47.600,0.77124,0.65088,-0.00171;
18:56:47.610,0.77100,0.65234,0.00244;
18:56:47.620,0.77051,0.65723,0.00171;
18:56:47.630,0.77002,0.66187,0.00513;
18:56:47.640,0.77148,0.66455,0.00366;
18:56:47.650,0.77075,0.66406,-0.00195;
18:56:47.660,0.76855,0.65723,-0.00806;
18:56:47.670,0.76978,0.64600,-0.01465;
18:56:47.680,0.77271,0.63916,-0.01880;
18:56:47.690,0.78003,0.63696,-0.01831;
18:56:47.700,0.78564,0.63428,-0.01025;
18:56:47.710,0.78076,0.67236,0.00195;
18:56:47.720,0.77856,0.66016,0.02173;
18:56:47.730,0.77783,0.65259,0.02441;
18:56:47.740,0.77832,0.65991,0.02271;
18:56:47.750,0.77148,0.67725,0.02075;
18:56:47.760,0.76953,0.69189,0.00659;
18:56:47.770,0.77026,0.68530,0.00000;
18:56:47.780,0.77173,0.66772,-0.01025;
18:56:47.790,0.77295,0.66089,-0.02197;
18:56:47.800,0.77148,0.65820,-0.02783;
18:56:47.810,0.77148,0.65405,-0.02808;
18:56:47.820,0.77271,0.65796,-0.02002;
18:56:47.830,0.77124,0.67627,-0.01758;
18:56:47.840,0.77075,0.68823,-0.01050;
18:56:47.850,0.77515,0.70190,-0.00513;
18:56:47.860,0.78101,0.72021,-0.00366;
18:56:47.870,0.78174,0.71826,-0.00952;
18:56:47.880,0.77905,0.70337,-0.00684;
18:56:47.890,0.77808,0.69067,-0.00269;
18:56:47.900,0.77588,0.69678,-0.01392;
18:56:47.910,0.77051,0.69873,-0.01318;
18:56:47.920,0.76563,0.68750,-0.00806;
18:56:47.930,0.76636,0.68262,-0.00781;
18:56:47.940,0.76758,0.68481,-0.01685;
18:56:47.950,0.76489,0.67896,-0.01880;
18:56:47.960,0.77002,0.66748,-0.01367;
18:56:47.970,0.77148,0.66919,-0.02417;
18:56:47.980,0.77002,0.67993,-0.03369;
18:56:47.990,0.76611,0.67065,-0.02490;
18:56:48.000,0.76221,0.65381,-0.01465;
18:56:48.010,0.76782,0.64697,-0.01343;
18:56:48.020,0.77075,0.71558,-0.00757;
18:56:48.030,0.76929,0.71655,-0.01392;
18:56:48.040,0.76978,0.71655,-0.01855;
18:56:48.050,0.76416,0.69751,-0.01294;
18:56:48.060,0.78247,0.69043,0.03027;
18:56:48.070,0.74780,0.61841,0.03467;
18:56:48.080,0.70947,0.59473,0.02197;
18:56:48.090,0.72290,0.62988,0.02124;
18:56:48.100,0.70532,0.64160,0.00952;
18:56:48.110,0.66577,0.68481,-0.01172;
18:56:48.120,0.65430,0.67529,-0.03662;
18:56:48.130,0.74146,0.70801,-0.02173;
18:56:48.140,0.70508,0.69214,-0.06396;
18:56:48.150,0.66699,0.64746,-0.05347;
18:56:48.160,0.74121,0.68091,-0.02368;
18:56:48.170,0.75806,0.72974,-0.03564;
18:56:48.180,0.77051,0.74951,-0.03198;
18:56:48.190,0.80835,0.77100,-0.04102;
18:56:48.200,0.81152,0.78149,-0.04004;
18:56:48.210,0.80615,0.78320,-0.04150;
18:56:48.220,0.80103,0.77319,-0.03564;
18:56:48.230,0.78882,0.75366,-0.03271;
18:56:48.240,0.78174,0.74805,-0.03271;
18:56:48.250,0.77954,0.75977,-0.03687;
18:56:48.260,0.77271,0.77173,-0.04199;
18:56:48.270,0.76831,0.77686,-0.05029;
18:56:48.280,0.75854,0.77563,-0.06104;
18:56:48.290,0.73364,0.77832,-0.07104;
18:56:48.300,0.70215,0.78809,-0.07935;
18:56:48.310,0.65796,0.78467,-0.02783;
18:56:48.320,0.70068,0.77539,-0.05249;
18:56:48.330,0.73486,0.76880,-0.10596;
18:56:48.340,0.76318,0.73975,-0.15649;
18:56:48.350,0.77930,0.72534,-0.20313;
18:56:48.360,0.79980,0.73853,-0.23755;
18:56:48.370,0.81274,0.71680,-0.23804;
18:56:48.380,0.82495,0.66504,-0.22852;
18:56:48.390,0.88623,0.65894,-0.27441;
18:56:48.400,0.88867,0.58008,-0.16162;
18:56:48.410,0.78809,0.67822,-0.13672;
18:56:48.420,0.80444,0.74951,-0.23022;
18:56:48.430,0.87183,0.70459,-0.19775;
18:56:48.440,0.82593,0.66846,-0.22583;
18:56:48.450,0.77417,0.57373,-0.26953;
18:56:48.460,0.76880,0.56226,-0.31763;
18:56:48.470,0.77124,0.52856,-0.39746;
18:56:48.480,0.76538,0.51245,-0.45020;
18:56:48.490,0.74609,0.48853,-0.41357;
18:56:48.500,0.75562,0.49268,-0.32593;
18:56:48.510,0.77051,0.57642,-0.21167;
18:56:48.520,0.74048,0.71631,-0.10889;
18:56:48.530,0.68164,0.82349,-0.04419;
18:56:48.540,0.63696,0.86475,-0.00098;
18:56:48.550,0.59082,0.84155,0.00244;
18:56:48.560,0.54370,0.81934,-0.00854;
18:56:48.570,0.51196,0.77197,-0.00293;
18:56:48.580,0.48779,0.72803,0.02905;
18:56:48.590,0.41113,0.75439,0.18237;
18:56:48.600,0.45654,0.51855,0.23511;
18:56:48.610,0.44336,0.44092,0.26172;
18:56:48.620,0.43457,0.42944,0.29419;
18:56:48.630,0.43237,0.49927,0.37476;
18:56:48.640,0.44922,0.58203,0.46387;
18:56:48.650,0.46338,0.66260,0.56958;
18:56:48.660,0.49878,0.68921,0.66504;
18:56:48.670,0.59985,0.64502,0.90332;
18:56:48.680,0.64087,0.53345,1.04834;
18:56:48.690,0.60083,0.42480,1.09668;
18:56:48.700,0.50928,0.39722,1.08252;
18:56:48.710,0.50830,0.39282,1.12451;
18:56:48.720,0.54883,0.34790,1.12451;
18:56:48.730,0.52686,0.20264,1.01147;
18:56:48.740,0.51367,0.02808,0.98535;
18:56:48.750,0.50098,-0.08789,0.99951;
18:56:48.760,0.49683,-0.11597,1.05933;
18:56:48.770,0.47168,0.03955,1.19507;
18:56:48.780,0.36475,0.60059,1.08521;
18:56:48.790,0.41675,0.91113,0.98584;
18:56:48.800,0.49927,0.62354,0.98853;
18:56:48.810,0.46606,0.40283,0.82373;
18:56:48.820,0.44263,0.33838,0.55420;
18:56:48.830,0.45898,0.22510,0.43726;
18:56:48.840,0.42700,0.20459,0.46167;
18:56:48.850,0.39600,0.35718,0.52563;
18:56:48.860,0.42725,0.41235,0.66260;
18:56:48.870,0.42261,0.43311,0.85400;
18:56:48.880,0.58179,0.46118,0.83447;
18:56:48.890,0.68335,0.54053,0.93579;
18:56:48.900,0.68579,0.48071,0.95288;
18:56:48.910,0.65674,0.46509,0.97876;
18:56:48.920,0.66675,0.44214,1.00000;
18:56:48.930,0.72217,0.48999,1.02319;
18:56:48.940,0.81616,0.65552,1.06201;
18:56:48.950,0.88989,0.78027,1.05444;
18:56:48.960,0.90283,0.79614,0.97021;
18:56:48.970,0.96533,0.67700,0.87915;
18:56:48.980,1.00684,0.51123,0.77930;
18:56:48.990,1.02954,0.39868,0.70801;
18:56:49.000,1.05322,0.30127,0.72583;
18:56:49.010,1.02856,0.29688,0.75806;
18:56:49.020,0.99121,0.22241,0.82373;
18:56:49.030,0.90991,0.14380,0.92065;
18:56:49.040,0.84473,0.06592,0.95410;
18:56:49.050,0.75488,-0.08179,0.93384;
18:56:49.060,0.66895,-0.11816,0.89453;
18:56:49.070,0.64209,-0.11328,0.92822;
18:56:49.080,0.64233,-0.06348,0.98486;
18:56:49.090,0.68652,-0.02612,1.05786;
18:56:49.100,0.85645,0.05469,1.06909;
18:56:49.110,0.88159,0.08472,0.99390;
18:56:49.120,0.86646,0.18945,0.93408;
18:56:49.130,0.86011,0.17139,0.90430;
18:56:49.140,0.79932,0.05347,0.87598;
18:56:49.150,0.70703,-0.10376,0.70557;
18:56:49.160,0.50879,-0.07471,0.77588;
18:56:49.170,0.28589,-0.05762,0.95117;
18:56:49.180,0.19360,-0.03320,0.95801;
18:56:49.190,0.12402,0.05688,0.97241;
18:56:49.200,0.08691,0.08594,0.94604;
18:56:49.210,0.10327,-0.00659,0.90137;
18:56:49.220,0.08496,-0.00781,0.89038;
18:56:49.230,0.07031,0.10229,0.83887;
18:56:49.240,0.10181,0.18042,0.75586;
18:56:49.250,0.15137,0.20215,0.68848;
18:56:49.260,0.22510,0.17090,0.66284;
18:56:49.270,0.25610,0.16187,0.66406;
18:56:49.280,0.25830,0.33398,0.65894;
18:56:49.290,0.33472,0.36523,0.72827;
18:56:49.300,0.40967,0.21167,0.81909;
18:56:49.310,0.43262,0.16357,0.86523;
18:56:49.320,0.44922,0.06787,0.84692;
18:56:49.330,0.47144,-0.09229,0.80518;
18:56:49.340,0.48560,-0.13452,0.75977;
18:56:49.350,0.50610,-0.08057,0.73047;
18:56:49.360,0.52173,0.03979,0.72852;
18:56:49.370,0.52759,0.20801,0.69727;
18:56:49.380,0.56226,0.28491,0.73950;
18:56:49.390,0.57886,0.28979,0.87256;
18:56:49.400,0.63696,0.12891,0.84790;
18:56:49.410,0.64111,0.08130,0.80762;
18:56:49.420,0.70093,0.14526,0.78467;
18:56:49.430,0.75024,0.38672,0.85303;
18:56:49.440,0.71484,0.42773,0.87207;
18:56:49.450,0.67139,0.33105,0.94043;
18:56:49.460,0.66113,0.33936,0.95923;
18:56:49.470,0.65405,0.39404,0.97778;
18:56:49.480,0.65967,0.44824,0.98901;
18:56:49.490,0.67798,0.41113,0.94678;
18:56:49.500,0.66211,0.34204,0.90503;
18:56:49.510,0.60083,0.39209,0.82690;
18:56:49.520,0.56201,0.52686,0.75024;
18:56:49.530,0.57349,0.61230,0.68652;
18:56:49.540,0.43530,0.52612,0.75757;
18:56:49.550,0.40259,0.40186,0.73828;
18:56:49.560,0.38647,0.36670,0.75342;
18:56:49.570,0.39282,0.50684,0.74219;
18:56:49.580,0.38452,0.64087,0.75049;
18:56:49.590,0.35107,0.68652,0.80566;
18:56:49.600,0.34985,0.69067,0.76147;
18:56:49.610,0.34521,0.61841,0.72876;
18:56:49.620,0.32983,0.54272,0.70752;
18:56:49.630,0.29248,0.49268,0.70923;
18:56:49.640,0.27783,0.54004,0.79150;
18:56:49.650,0.39380,0.49243,0.82324;
18:56:49.660,0.36182,0.41699,0.90308;
18:56:49.670,0.36938,0.53491,0.83350;
18:56:49.680,0.40454,0.67017,0.69287;
18:56:49.690,0.41211,0.79077,0.57788;
18:56:49.700,0.38770,0.81030,0.55518;
18:56:49.710,0.34009,0.79541,0.65039;
18:56:49.720,0.36816,0.95557,0.79810;
18:56:49.730,0.37988,0.99243,0.79736;
18:56:49.740,0.38281,0.95337,0.78516;
18:56:49.750,0.39160,0.88501,0.70557;
18:56:49.760,0.39258,0.73438,0.57251;
18:56:49.770,0.38379,0.57837,0.51855;
18:56:49.780,0.37305,0.64746,0.48389;
18:56:49.790,0.38354,0.92163,0.43262;
18:56:49.800,0.45361,0.81592,0.12158;
18:56:49.810,0.41357,0.79370,0.04492;
18:56:49.820,0.40723,0.76978,-0.01611;
18:56:49.830,0.40039,0.71899,-0.02075;
18:56:49.840,0.38306,0.67358,-0.03784;
18:56:49.850,0.38525,0.64697,-0.09741;
18:56:49.860,0.39844,0.67871,-0.19434;
18:56:49.870,0.41455,0.66943,-0.27759;
18:56:49.880,0.41748,0.65796,-0.29346;
18:56:49.890,0.41577,0.74365,-0.25781;
18:56:49.900,0.39966,0.71191,-0.28955;
18:56:49.910,0.34473,0.91064,-0.31665;
18:56:49.920,0.34595,0.87573,-0.35571;
18:56:49.930,0.38403,0.83203,-0.41919;
18:56:49.940,0.40063,0.84326,-0.44312;
18:56:49.950,0.39136,0.82227,-0.42090;
18:56:49.960,0.36450,0.81152,-0.37476;
18:56:49.970,0.33691,0.84204,-0.33691;
18:56:49.980,0.31445,0.88794,-0.31274;
18:56:49.990,0.30005,0.87744,-0.30176;
18:56:50.000,0.29150,0.84375,-0.28271;
18:56:50.010,0.28247,0.83032,-0.25391;
18:56:50.020,0.27710,0.85400,-0.23755;
18:56:50.030,0.27002,0.90332,-0.24438;
18:56:50.040,0.26538,0.90161,-0.27832;
18:56:50.050,0.28442,0.85767,-0.32202;
18:56:50.060,0.32007,0.83765,-0.34375;
18:56:50.070,0.31860,0.85449,-0.34155;
18:56:50.080,0.30298,0.87036,-0.30933;
18:56:50.090,0.30737,0.90283,-0.28955;
18:56:50.100,0.29541,0.99023,-0.30078;
18:56:50.110,0.34326,0.90356,-0.34985;
18:56:50.120,0.33398,0.88452,-0.33936;
18:56:50.130,0.34424,0.87988,-0.32666;
18:56:50.140,0.37012,0.87085,-0.32422;
18:56:50.150,0.37915,0.89136,-0.33423;
18:56:50.160,0.35449,0.90112,-0.27612;
18:56:50.170,0.34961,0.93506,-0.32056;
18:56:50.180,0.33081,0.89038,-0.36890;
18:56:50.190,0.31787,0.86304,-0.33081;
18:56:50.200,0.31079,0.87061,-0.29761;
18:56:50.210,0.32837,0.91235,-0.27661;
18:56:50.220,0.34912,0.98022,-0.29395;
18:56:50.230,0.36060,0.98706,-0.36011;
18:56:50.240,0.36914,0.94409,-0.43628;
18:56:50.250,0.36792,0.90039,-0.46094;
18:56:50.260,0.37231,0.88257,-0.43530;
18:56:50.270,0.37744,0.91846,-0.41016;
18:56:50.280,0.37573,0.94922,-0.39063;
18:56:50.290,0.36987,0.91284,-0.36328;
18:56:50.300,0.35156,0.88232,-0.31421;
18:56:50.310,0.34570,0.86182,-0.28638;
18:56:50.320,0.36914,0.84131,-0.26685;
18:56:50.330,0.39063,0.86450,-0.25366;
18:56:50.340,0.39282,0.87451,-0.24561;
18:56:50.350,0.39771,0.84497,-0.28247;
18:56:50.360,0.41406,0.82422,-0.34790;
18:56:50.370,0.40845,0.80542,-0.37793;
18:56:50.380,0.39844,0.78271,-0.38110;
18:56:50.390,0.38843,0.80493,-0.35107;
18:56:50.400,0.38062,0.83789,-0.32544;
18:56:50.410,0.37427,0.84814,-0.31274;
18:56:50.420,0.35913,0.84033,-0.30835;
18:56:50.430,0.35645,0.88989,-0.32007;
18:56:50.440,0.39233,0.92725,-0.34521;
18:56:50.450,0.40088,0.89160,-0.44775;
18:56:50.460,0.39917,0.79590,-0.42993;
18:56:50.470,0.42969,0.90771,-0.37158;
18:56:50.480,0.45703,0.91187,-0.42920;
18:56:50.490,0.46143,0.83130,-0.49194;
18:56:50.500,0.42285,0.80371,-0.46289;
18:56:50.510,0.39551,0.84570,-0.40747;
18:56:50.520,0.42432,0.87939,-0.42969;
18:56:50.530,0.44092,0.86255,-0.46533;
18:56:50.540,0.40845,0.84302,-0.47485;
18:56:50.550,0.38062,0.83032,-0.48193;
18:56:50.560,0.37720,0.74341,-0.48340;
18:56:50.570,0.36572,0.73901,-0.43774;
18:56:50.580,0.34351,0.88379,-0.35425;
18:56:50.590,0.35327,0.93359,-0.34326;
18:56:50.600,0.38794,0.88037,-0.43872;
18:56:50.610,0.38696,0.78516,-0.51880;
18:56:50.620,0.34912,0.74243,-0.48901;
18:56:50.630,0.32251,0.79688,-0.39771;
18:56:50.640,0.33447,0.83862,-0.31665;
18:56:50.650,0.32739,0.83325,-0.25391;
18:56:50.660,0.30908,0.82837,-0.25269;
18:56:50.670,0.33057,0.79199,-0.30933;
18:56:50.680,0.38525,0.73877,-0.38159;
18:56:50.690,0.40308,0.75293,-0.44141;
18:56:50.700,0.40234,0.76782,-0.45996;
18:56:50.710,0.42969,0.73145,-0.46216;
18:56:50.720,0.42871,0.81714,-0.43457;
18:56:50.730,0.41675,0.84692,-0.36255;
18:56:50.740,0.45630,0.74854,-0.34521;
18:56:50.750,0.47900,0.74951,-0.38159;
18:56:50.760,0.47021,0.77759,-0.39697;
18:56:50.770,0.51660,0.78076,-0.39966;
18:56:50.780,0.49658,0.90625,-0.42383;
18:56:50.790,0.48999,0.94556,-0.46826;
18:56:50.800,0.48535,0.89990,-0.45679;
18:56:50.810,0.45752,0.91846,-0.42358;
18:56:50.820,0.42676,0.96436,-0.36084;
18:56:50.830,0.41553,0.92749,-0.32446;
18:56:50.840,0.41089,0.92920,-0.34570;
18:56:50.850,0.40210,0.93896,-0.37036;
18:56:50.860,0.40918,0.91040,-0.39648;
18:56:50.870,0.42847,0.88965,-0.37988;
18:56:50.880,0.41895,0.84131,-0.34985;
18:56:50.890,0.39844,0.86426,-0.34766;
18:56:50.900,0.39917,0.86890,-0.33350;
18:56:50.910,0.42090,0.87622,-0.35596;
18:56:50.920,0.43799,0.88672,-0.37817;
18:56:50.930,0.43652,0.83398,-0.35327;
18:56:50.940,0.42651,0.86499,-0.32959;
18:56:50.950,0.42017,0.90088,-0.31616;
18:56:50.960,0.43701,0.86157,-0.33545;
18:56:50.970,0.45874,0.87769,-0.37671;
18:56:50.980,0.45361,0.89746,-0.38623;
18:56:50.990,0.42969,0.86133,-0.36230;
18:56:51.000,0.41748,0.85303,-0.34473;
18:56:51.010,0.41797,0.87793,-0.34326;
18:56:51.020,0.41211,0.87305,-0.32544;
18:56:51.030,0.39746,0.85400,-0.29053;
18:56:51.040,0.37915,0.90771,-0.35059;
18:56:51.050,0.35010,0.89307,-0.34521;
18:56:51.060,0.33716,0.87036,-0.32861;
18:56:51.070,0.33081,0.81787,-0.27612;
18:56:51.080,0.31641,0.86230,-0.22607;
18:56:51.090,0.32324,0.90356,-0.20898;
18:56:51.100,0.34351,0.85645,-0.22583;
18:56:51.110,0.34644,0.87158,-0.26294;
18:56:51.120,0.34302,0.91382,-0.27661;
18:56:51.130,0.34814,0.90991,-0.27905;
18:56:51.140,0.35254,0.91162,-0.28564;
18:56:51.150,0.35645,0.93115,-0.29614;
18:56:51.160,0.36353,0.90381,-0.27637;
18:56:51.170,0.36426,0.87842,-0.25415;
18:56:51.180,0.37158,0.88647,-0.25610;
18:56:51.190,0.37842,0.88672,-0.26953;
18:56:51.200,0.38159,0.91162,-0.27271;
18:56:51.210,0.37451,0.92285,-0.25122;
18:56:51.220,0.36768,0.91992,-0.24316;
18:56:51.230,0.36768,0.91724,-0.25244;
18:56:51.240,0.36450,0.90845,-0.27344;
18:56:51.250,0.35815,0.87354,-0.29346;
18:56:51.260,0.35571,0.87305,-0.29590;
18:56:51.270,0.34937,0.93311,-0.28687;
18:56:51.280,0.34375,0.94824,-0.30640;
18:56:51.290,0.34888,0.95508,-0.32935;
18:56:51.300,0.33057,0.94214,-0.29419;
18:56:51.310,0.31982,0.94019,-0.27246;
18:56:51.320,0.31982,0.92041,-0.28174;
18:56:51.330,0.32983,0.93140,-0.29272;
18:56:51.340,0.32031,0.92456,-0.27539;
18:56:51.350,0.31470,0.93555,-0.26733;
18:56:51.360,0.31689,0.92920,-0.26807;
18:56:51.370,0.31592,0.92090,-0.27002;
18:56:51.380,0.31909,0.90210,-0.26807;
18:56:51.390,0.32324,0.89185,-0.28003;
18:56:51.400,0.32544,0.90161,-0.28809;
18:56:51.410,0.32422,0.91309,-0.27197;
18:56:51.420,0.32275,0.91895,-0.26343;
18:56:51.430,0.31860,0.91504,-0.25659;
18:56:51.440,0.30518,0.90527,-0.24097;
18:56:51.450,0.29468,0.89648,-0.22876;
18:56:51.460,0.30273,0.88892,-0.23975;
18:56:51.470,0.32251,0.87500,-0.26196;
18:56:51.480,0.33252,0.89648,-0.27148;
18:56:51.490,0.33838,0.93311,-0.27490;
18:56:51.500,0.33740,0.95020,-0.27856;
18:56:51.510,0.33228,0.92480,-0.26245;
18:56:51.520,0.32617,0.88940,-0.20874;
18:56:51.530,0.30493,0.90991,-0.13965;
18:56:51.540,0.30640,0.92358,-0.13672;
18:56:51.550,0.32031,0.88501,-0.16602;
18:56:51.560,0.32666,0.91528,-0.29346;
18:56:51.570,0.37720,0.94702,-0.44653;
18:56:51.580,0.38989,0.90552,-0.45874;
18:56:51.590,0.34863,0.94556,-0.34229;
18:56:51.600,0.30640,1.00757,-0.20825;
18:56:51.610,0.30933,0.96875,-0.17090;
18:56:51.620,0.32959,0.90259,-0.20801;
18:56:51.630,0.31494,0.97754,-0.28467;
18:56:51.640,0.33423,0.98291,-0.26123;
18:56:51.650,0.33252,0.97241,-0.24756;
18:56:51.660,0.29663,0.92847,-0.20654;
18:56:51.670,0.28931,0.96338,-0.20605;
18:56:51.680,0.30811,0.92749,-0.19629;
18:56:51.690,0.30273,0.90723,-0.21558;
18:56:51.700,0.32495,0.93188,-0.28833;
18:56:51.710,0.34912,0.93237,-0.33521;
18:56:51.720,0.33374,0.94727,-0.29956;
18:56:51.730,0.30273,0.95996,-0.24268;
18:56:51.740,0.29883,0.93799,-0.20776;
18:56:51.750,0.29956,0.90796,-0.17920;
18:56:51.760,0.30786,0.90405,-0.20483;
18:56:51.770,0.32300,0.88037,-0.22095;
18:56:51.780,0.32764,0.88989,-0.25073;
18:56:51.790,0.34497,0.90967,-0.25269;
18:56:51.800,0.33667,0.94141,-0.23682;
18:56:51.810,0.33350,0.93970,-0.22095;
18:56:51.820,0.32788,0.90845,-0.21533;
18:56:51.830,0.32739,0.90894,-0.22144;
18:56:51.840,0.34204,0.90356,-0.22485;
18:56:51.850,0.34229,0.92920,-0.24609;
18:56:51.860,0.34546,0.95483,-0.28369;
18:56:51.870,0.34692,0.93262,-0.29980;
18:56:51.880,0.32959,0.93750,-0.26685;
18:56:51.890,0.31543,0.93677,-0.23267;
18:56:51.900,0.30908,0.91504,-0.19238;
18:56:51.910,0.29419,0.92261,-0.16284;
18:56:51.920,0.30103,0.91968,-0.15649;
18:56:51.930,0.30884,0.88843,-0.26245;
18:56:51.940,0.34790,0.94263,-0.33008;
18:56:51.950,0.32178,0.91357,-0.21899;
18:56:51.960,0.30054,0.91797,-0.16553;
18:56:51.970,0.31689,0.90601,-0.17017;
18:56:51.980,0.33301,0.89380,-0.20801;
18:56:51.990,0.33521,0.91235,-0.24829;
18:56:52.000,0.33936,0.91187,-0.27905;
18:56:52.010,0.34229,0.91650,-0.30493;
18:56:52.020,0.35107,0.90381,-0.29175;
18:56:52.030,0.33398,0.90283,-0.23730;
18:56:52.040,0.32544,0.90918,-0.19092;
18:56:52.050,0.33569,0.90503,-0.19922;
18:56:52.060,0.34912,0.91479,-0.23071;
18:56:52.070,0.35474,0.93335,-0.26270;
18:56:52.080,0.36523,0.94067,-0.30518;
18:56:52.090,0.36401,0.94849,-0.31934;
18:56:52.100,0.35010,0.95752,-0.28052;
18:56:52.110,0.34229,0.95825,-0.23242;
18:56:52.120,0.34155,0.96265,-0.19019;
18:56:52.130,0.34058,0.97168,-0.16479;
18:56:52.140,0.34839,0.95947,-0.19873;
18:56:52.150,0.37012,0.94409,-0.24854;
18:56:52.160,0.36572,0.94873,-0.27344;
18:56:52.170,0.35303,0.97070,-0.27246;
18:56:52.180,0.34473,0.97900,-0.25684;
18:56:52.190,0.32837,0.95581,-0.23975;
18:56:52.200,0.31543,0.92310,-0.20996;
18:56:52.210,0.30225,0.91260,-0.19263;
18:56:52.220,0.30981,0.91333,-0.19336;
18:56:52.230,0.31836,0.92871,-0.21606;
18:56:52.240,0.32690,0.93213,-0.28247;
18:56:52.250,0.31909,0.92627,-0.25049;
18:56:52.260,0.31421,0.91821,-0.23755;
18:56:52.270,0.31616,0.89478,-0.21924;
18:56:52.280,0.34155,0.88208,-0.20605;
18:56:52.290,0.32202,0.96094,-0.23608;
18:56:52.300,0.33057,0.92163,-0.26001;
18:56:52.310,0.35840,0.88501,-0.26563;
18:56:52.320,0.34058,0.95459,-0.27612;
18:56:52.330,0.34448,0.93457,-0.26758;
18:56:52.340,0.34448,0.92822,-0.26343;
18:56:52.350,0.33667,0.92017,-0.25439;
18:56:52.360,0.32983,0.91528,-0.23682;
18:56:52.370,0.32983,0.93750,-0.23169;
18:56:52.380,0.32739,0.94946,-0.25000;
18:56:52.390,0.32642,0.91919,-0.26587;
18:56:52.400,0.32568,0.90503,-0.25708;
18:56:52.410,0.32715,0.91846,-0.24609;
18:56:52.420,0.32788,0.90820,-0.24390;
18:56:52.430,0.33350,0.89893,-0.23169;
18:56:52.440,0.32837,0.92163,-0.23047;
18:56:52.450,0.34912,0.89844,-0.24976;
18:56:52.460,0.34839,0.95508,-0.28613;
18:56:52.470,0.33521,0.97778,-0.33472;
18:56:52.480,0.35938,0.90991,-0.31323;
18:56:52.490,0.34009,0.91724,-0.27344;
18:56:52.500,0.32275,0.91602,-0.24634;
18:56:52.510,0.33179,0.91064,-0.22144;
18:56:52.520,0.34863,0.91016,-0.22241;
18:56:52.530,0.36816,0.91431,-0.24316;
18:56:52.540,0.37891,0.92114,-0.30518;
18:56:52.550,0.36523,0.92017,-0.28809;
18:56:52.560,0.35303,0.93628,-0.25049;
18:56:52.570,0.33130,0.95996,-0.23511;
18:56:52.580,0.31934,0.95044,-0.24902;
18:56:52.590,0.39429,0.75000,-0.24219;
18:56:52.600,0.41895,0.79932,-0.25659;
18:56:52.610,0.31470,1.00269,-0.32886;
18:56:52.620,0.37524,0.98413,-0.34033;
18:56:52.630,0.36133,0.93726,-0.29688;
18:56:52.640,0.37476,0.90405,-0.27026;
18:56:52.650,0.38306,0.87646,-0.26489;
18:56:52.660,0.37549,0.90088,-0.27856;
18:56:52.670,0.37305,0.94214,-0.28638;
18:56:52.680,0.38794,0.92334,-0.30786;
18:56:52.690,0.39453,0.92358,-0.34619;
18:56:52.700,0.38672,0.95459,-0.37915;
18:56:52.710,0.38208,0.95605,-0.38599;
18:56:52.720,0.35938,0.95898,-0.31909;
18:56:52.730,0.30469,1.02588,-0.31006;
18:56:52.740,0.34229,0.95044,-0.32446;
18:56:52.750,0.44458,0.85815,-0.31226;
18:56:52.760,0.46924,0.86157,-0.36646;
18:56:52.770,0.43848,0.84497,-0.40674;
18:56:52.780,0.39380,0.89795,-0.40625;
18:56:52.790,0.36060,0.87524,-0.39893;
18:56:52.800,0.33594,0.77563,-0.31567;
