time,acc_x,acc_y,acc_z
18:13:12.833,0.93042,0.47583,0.10889;
18:13:12.843,0.94653,0.36230,0.05713;
18:13:12.853,1.02271,0.16553,0.00415;
18:13:12.863,1.01880,0.08423,-0.06494;
18:13:12.873,0.97705,0.17603,-0.10010;
18:13:12.883,1.01270,0.20166,-0.09229;
18:13:12.893,1.04907,0.25537,0.01074;
18:13:12.903,1.05078,0.38818,0.02319;
18:13:12.913,1.10059,0.31885,-0.00562;
18:13:12.923,1.13477,0.18335,0.01074;
18:13:12.933,1.13672,0.05273,0.01221;
18:13:12.943,1.16675,-0.01660,-0.10669;
18:13:12.953,1.19873,-0.14819,-0.21191;
18:13:12.963,1.13428,-0.24805,-0.20776;
18:13:12.973,1.10083,-0.23584,-0.14429;
18:13:12.983,1.07153,-0.22119,-0.03711;
18:13:12.993,0.99072,-0.18457,0.03711;
18:13:13.003,0.97241,-0.07080,0.07251;
18:13:13.013,0.97241,-0.00757,0.12842;
18:13:13.023,0.91455,-0.06543,0.18115;
18:13:13.033,0.65405,-0.10278,0.10156;
18:13:13.043,0.54443,-0.20020,0.28687;
18:13:13.053,0.50269,-0.12646,0.33496;
18:13:13.063,0.46045,0.00659,0.34277;
18:13:13.073,0.41504,0.05273,0.34668;
18:13:13.083,0.39063,0.07617,0.34644;
18:13:13.093,0.39746,0.10791,0.34888;
18:13:13.103,0.44312,0.14844,0.35815;
18:13:13.113,0.51563,0.12158,0.34033;
18:13:13.123,0.59229,0.01489,0.27783;
18:13:13.133,0.67017,-0.03735,0.19043;
18:13:13.143,0.75854,-0.01733,0.16895;
18:13:13.153,0.84473,-0.03979,0.12744;
18:13:13.163,0.90283,-0.13330,0.01343;
18:13:13.173,0.98657,-0.32300,-0.11572;
18:13:13.183,1.04785,-0.41187,-0.13062;
18:13:13.193,1.10815,-0.22266,-0.20605;
18:13:13.203,1.16309,-0.28149,-0.17285;
18:13:13.213,1.14648,-0.36401,-0.13916;
18:13:13.223,1.16724,-0.36523,-0.10034;
18:13:13.233,1.20776,-0.38062,0.15356;
18:13:13.243,1.07227,-0.46533,0.39917;
18:13:13.253,1.03906,-0.20410,0.49634;
18:13:13.263,1.09082,0.08887,0.48901;
18:13:13.273,1.24390,0.12598,0.25146;
18:13:13.283,1.45313,-0.16113,-0.24219;
18:13:13.293,1.56104,-0.58447,-0.49854;
18:13:13.303,1.62378,-0.89648,-0.46069;
18:13:13.313,1.56372,-0.98853,-0.09155;
18:13:13.323,1.41504,-0.34912,0.02515;
18:13:13.333,1.26343,-0.01538,0.27075;
18:13:13.343,1.21558,-0.01733,0.08618;
18:13:13.353,1.19434,-0.10376,0.14453;
18:13:13.363,1.10962,-0.20313,0.21289;
18:13:13.373,1.00439,-0.27808,0.29565;
18:13:13.383,0.87378,-0.25928,0.36279;
18:13:13.393,0.73462,-0.05469,0.16821;
18:13:13.403,0.62866,0.00586,0.09375;
18:13:13.413,0.56592,0.02856,0.61646;
18:13:13.423,0.52002,0.04688,0.60229;
18:13:13.433,0.39307,-0.02710,0.07300;
18:13:13.443,0.28198,0.21704,0.01855;
18:13:13.453,0.21802,0.49341,0.49829;
18:13:13.463,0.27856,-0.30029,0.26367;
18:13:13.473,0.25806,-0.04834,0.12427;
18:13:13.483,0.34619,0.27661,-0.08008;
18:13:13.493,0.44556,0.29980,-0.22632;
18:13:13.503,0.52026,0.12305,-0.21094;
18:13:13.513,0.57007,-0.06152,-0.15649;
18:13:13.523,0.64624,-0.11035,-0.08813;
18:13:13.533,0.73608,0.01880,0.05859;
18:13:13.543,0.84961,-0.21094,0.45776;
18:13:13.553,0.93384,-0.22998,0.43750;
18:13:13.563,0.99561,-0.09399,0.39746;
18:13:13.573,1.04932,0.01660,0.24902;
18:13:13.583,1.06616,0.03198,0.02808;
18:13:13.593,1.42773,-0.38281,-0.12598;
18:13:13.603,1.64551,-0.77222,-0.04395;
18:13:13.613,1.64185,-0.96729,0.05591;
18:13:13.623,1.58521,-0.79492,0.23608;
18:13:13.633,1.56152,-0.25024,0.44165;
18:13:13.643,1.46509,0.02124,0.47266;
18:13:13.653,1.42627,0.01978,0.53125;
18:13:13.663,1.45850,-0.03320,0.47046;
18:13:13.673,1.51685,-0.06396,0.31299;
18:13:13.683,1.52832,-0.14893,0.01074;
18:13:13.693,1.51855,-0.17651,-0.16699;
18:13:13.703,1.46240,-0.27490,-0.14380;
18:13:13.713,1.38647,-0.35791,-0.02051;
18:13:13.723,1.33887,-0.26953,0.02612;
18:13:13.733,1.32227,-0.08643,-0.06030;
18:13:13.743,1.28760,0.16187,-0.04736;
18:13:13.753,1.20972,0.08936,-0.02124;
18:13:13.763,1.09204,0.05933,0.03247;
18:13:13.773,0.96655,0.03223,0.13257;
18:13:13.783,0.86719,0.05103,0.22729;
18:13:13.793,0.78491,-0.00098,0.22070;
18:13:13.803,0.66528,0.06494,0.27881;
18:13:13.813,0.51904,0.12280,0.30249;
18:13:13.823,0.40771,0.10693,0.28564;
18:13:13.833,0.21069,0.47607,0.16870;
18:13:13.843,0.18579,0.55078,0.06543;
18:13:13.853,0.23145,0.52612,0.14795;
18:13:13.863,0.27783,0.41382,0.27661;
18:13:13.873,0.34912,0.22705,0.32813;
18:13:13.883,0.44751,0.03247,0.29785;
18:13:13.893,0.58911,-0.06055,0.28589;
18:13:13.903,0.78735,-0.08301,0.30371;
18:13:13.913,0.97656,-0.10815,0.40234;
18:13:13.923,1.07227,-0.11597,0.45630;
18:13:13.933,1.16821,-0.03809,0.23071;
18:13:13.943,1.27905,0.19971,0.23682;
18:13:13.953,1.39648,0.13135,0.11279;
18:13:13.963,1.56104,-0.14453,0.02222;
18:13:13.973,1.68408,-0.33032,-0.01636;
18:13:13.983,1.69800,-0.38354,0.01099;
18:13:13.993,1.58594,-0.29614,0.08789;
18:13:14.003,1.42017,-0.12573,0.15479;
18:13:14.013,1.26587,0.10327,0.18628;
18:13:14.023,1.14526,0.26123,0.11450;
18:13:14.033,1.42383,0.27539,0.08984;
18:13:14.043,1.55640,0.37354,0.04346;
18:13:14.053,1.61011,0.36450,0.05811;
18:13:14.063,1.53467,0.25781,0.10376;
18:13:14.073,1.44238,0.22388,0.12500;
18:13:14.083,1.39087,0.24341,0.10400;
18:13:14.093,1.36841,0.20361,0.08740;
18:13:14.103,1.36377,0.09131,0.04761;
18:13:14.113,1.38599,0.03809,0.07397;
18:13:14.123,1.24756,0.25854,0.06128;
18:13:14.133,1.18359,0.34570,0.03076;
18:13:14.143,1.18091,0.37793,-0.00171;
18:13:14.153,1.17090,0.36694,-0.01563;
18:13:14.163,1.13672,0.38354,-0.02539;
18:13:14.173,1.13306,0.41699,-0.01733;
18:13:14.183,1.14429,0.45166,0.00781;
18:13:14.193,1.11279,0.48389,0.02197;
18:13:14.203,1.07324,0.48193,0.01953;
18:13:14.213,1.06543,0.46191,0.01001;
18:13:14.223,1.10278,0.41479,0.00537;
18:13:14.233,1.14111,0.36279,0.00903;
18:13:14.243,1.15991,0.33569,0.02466;
18:13:14.253,1.15796,0.33618,0.04810;
18:13:14.263,1.13696,0.33179,0.06372;
18:13:14.273,1.07324,0.29541,0.09424;
18:13:14.283,1.05103,0.28931,0.10327;
18:13:14.293,1.02148,0.29297,0.10913;
18:13:14.303,1.01147,0.28687,0.11987;
18:13:14.313,1.02222,0.28052,0.13086;
18:13:14.323,1.05225,0.27612,0.14575;
18:13:14.333,1.08276,0.26514,0.16528;
18:13:14.343,1.10376,0.26587,0.18506;
18:13:14.353,1.09229,0.27979,0.19263;
18:13:14.363,1.06860,0.28711,0.19800;
18:13:14.373,1.04688,0.28540,0.19556;
18:13:14.383,1.02832,0.30908,0.20190;
18:13:14.393,1.01538,0.34595,0.21289;
18:13:14.403,1.01025,0.31982,0.20190;
18:13:14.413,1.01880,0.29028,0.19043;
18:13:14.423,1.00781,0.28491,0.18237;
18:13:14.433,0.99023,0.28394,0.17822;
18:13:14.443,0.96509,0.28198,0.17847;
18:13:14.453,0.93799,0.27905,0.17896;
18:13:14.463,0.90869,0.27881,0.17627;
18:13:14.473,0.88940,0.28174,0.17334;
18:13:14.483,0.88037,0.28638,0.16675;
18:13:14.493,0.87476,0.30469,0.16089;
18:13:14.503,0.87427,0.32617,0.16211;
18:13:14.513,0.87134,0.33691,0.15845;
18:13:14.523,0.86426,0.34375,0.15283;
18:13:14.533,0.85327,0.35742,0.14429;
18:13:14.543,0.84302,0.38672,0.12964;
18:13:14.553,0.82861,0.42090,0.12427;
18:13:14.563,0.81372,0.43652,0.11597;
18:13:14.573,0.81714,0.47266,0.08496;
18:13:14.583,0.82690,0.47559,0.06738;
18:13:14.593,0.82837,0.47266,0.05811;
18:13:14.603,0.82520,0.46729,0.04834;
18:13:14.613,0.81372,0.47339,0.03442;
18:13:14.623,0.79932,0.48682,0.02637;
18:13:14.633,0.78833,0.50073,0.01147;
18:13:14.643,0.78027,0.51343,-0.01074;
18:13:14.653,0.77417,0.53003,-0.02490;
18:13:14.663,0.77148,0.55957,-0.05029;
18:13:14.673,0.76880,0.59058,-0.07080;
18:13:14.683,0.76685,0.61841,-0.10303;
18:13:14.693,0.73267,0.65625,-0.15063;
18:13:14.703,0.71606,0.67554,-0.17920;
18:13:14.713,0.71021,0.67065,-0.18140;
18:13:14.723,0.70898,0.66870,-0.17822;
18:13:14.733,0.71338,0.67090,-0.17017;
18:13:14.743,0.72070,0.66797,-0.16943;
18:13:14.753,0.73560,0.67627,-0.17236;
18:13:14.763,0.73218,0.69043,-0.18262;
18:13:14.773,0.69849,0.68945,-0.20532;
18:13:14.783,0.66846,0.70142,-0.22510;
18:13:14.793,0.64917,0.72314,-0.24438;
18:13:14.803,0.62305,0.73047,-0.25854;
18:13:14.813,0.59497,0.73511,-0.27832;
18:13:14.823,0.57349,0.74731,-0.31079;
18:13:14.833,0.56396,0.76563,-0.34106;
18:13:14.843,0.55566,0.77417,-0.35620;
18:13:14.853,0.55249,0.77710,-0.36133;
18:13:14.863,0.55176,0.77783,-0.35815;
18:13:14.873,0.54468,0.77954,-0.35132;
18:13:14.883,0.53052,0.78638,-0.34937;
18:13:14.893,0.52222,0.79297,-0.35400;
18:13:14.903,0.53027,0.80176,-0.37354;
18:13:14.913,0.55420,0.80957,-0.39648;
18:13:14.923,0.56226,0.80444,-0.40869;
18:13:14.933,0.56104,0.80054,-0.40698;
18:13:14.943,0.55737,0.79492,-0.40698;
18:13:14.953,0.54907,0.79468,-0.40186;
18:13:14.963,0.53271,0.79712,-0.40259;
18:13:14.973,0.52319,0.79492,-0.41577;
18:13:14.983,0.50610,0.77222,-0.43457;
18:13:14.993,0.50439,0.77344,-0.43750;
18:13:15.003,0.50415,0.76953,-0.43921;
18:13:15.013,0.50366,0.76538,-0.44434;
18:13:15.023,0.50317,0.76563,-0.45020;
18:13:15.033,0.50513,0.76904,-0.45190;
18:13:15.043,0.50488,0.76880,-0.45190;
18:13:15.053,0.50586,0.76563,-0.45728;
18:13:15.063,0.51099,0.76270,-0.46729;
18:13:15.073,0.51587,0.76343,-0.47681;
18:13:15.083,0.51953,0.75928,-0.48486;
18:13:15.093,0.52222,0.74902,-0.48608;
18:13:15.103,0.52075,0.73584,-0.48071;
18:13:15.113,0.51538,0.71680,-0.47632;
18:13:15.123,0.51001,0.70508,-0.46802;
18:13:15.133,0.50562,0.69653,-0.46655;
18:13:15.143,0.50146,0.69165,-0.46460;
18:13:15.153,0.49609,0.68799,-0.45996;
18:13:15.163,0.48975,0.67993,-0.45801;
18:13:15.173,0.48267,0.67505,-0.45728;
18:13:15.183,0.47632,0.67236,-0.45654;
18:13:15.193,0.46606,0.67310,-0.45459;
18:13:15.203,0.46094,0.67358,-0.45679;
18:13:15.213,0.45654,0.67871,-0.45703;
18:13:15.223,0.44971,0.67651,-0.45605;
18:13:15.233,0.44385,0.67236,-0.45337;
18:13:15.243,0.44116,0.67554,-0.45020;
18:13:15.253,0.43970,0.67554,-0.44702;
18:13:15.263,0.43457,0.68213,-0.44458;
18:13:15.273,0.43677,0.68848,-0.43677;
18:13:15.283,0.42090,0.67627,-0.42651;
18:13:15.293,0.40332,0.68579,-0.42090;
18:13:15.303,0.39575,0.69067,-0.42017;
18:13:15.313,0.39038,0.69116,-0.41748;
18:13:15.323,0.38232,0.69434,-0.41699;
18:13:15.333,0.37549,0.70093,-0.41113;
18:13:15.343,0.36938,0.70337,-0.40991;
18:13:15.353,0.36768,0.71216,-0.41235;
18:13:15.363,0.37012,0.72510,-0.41333;
18:13:15.373,0.37402,0.73779,-0.41528;
18:13:15.383,0.38403,0.74902,-0.41479;
18:13:15.393,0.39014,0.76318,-0.41333;
18:13:15.403,0.39795,0.77344,-0.41016;
18:13:15.413,0.41479,0.78662,-0.41040;
18:13:15.423,0.44629,0.82275,-0.42114;
18:13:15.433,0.48755,0.86304,-0.43701;
18:13:15.443,0.56470,0.93677,-0.45020;
18:13:15.453,0.59326,0.94165,-0.43555;
18:13:15.463,0.59863,0.91284,-0.40527;
18:13:15.473,0.57642,0.86938,-0.37646;
18:13:15.483,0.53687,0.82227,-0.36377;
18:13:15.493,0.49683,0.78784,-0.35498;
18:13:15.503,0.46045,0.77783,-0.35400;
18:13:15.513,0.42798,0.77441,-0.35938;
18:13:15.523,0.40332,0.77417,-0.35620;
18:13:15.533,0.39673,0.77490,-0.34912;
18:13:15.543,0.40405,0.77393,-0.34155;
18:13:15.553,0.41431,0.77124,-0.32861;
18:13:15.563,0.41260,0.76807,-0.29272;
18:13:15.573,0.39722,0.78931,-0.26880;
18:13:15.583,0.39160,0.80786,-0.26807;
18:13:15.593,0.38818,0.82495,-0.26831;
18:13:15.603,0.38110,0.84717,-0.26978;
18:13:15.613,0.37598,0.86670,-0.26904;
18:13:15.623,0.37207,0.87964,-0.26392;
18:13:15.633,0.36377,0.88696,-0.25806;
18:13:15.643,0.35693,0.89795,-0.24927;
18:13:15.653,0.34521,0.91284,-0.24341;
18:13:15.663,0.33374,0.92676,-0.24731;
18:13:15.673,0.33032,0.94702,-0.24658;
18:13:15.683,0.32959,0.95581,-0.24438;
18:13:15.693,0.32959,0.96216,-0.24609;
18:13:15.703,0.33105,0.96631,-0.24683;
18:13:15.713,0.33716,0.97461,-0.24658;
18:13:15.723,0.34155,0.97925,-0.24902;
18:13:15.733,0.34351,0.97925,-0.25049;
18:13:15.743,0.35205,0.98560,-0.24976;
18:13:15.753,0.36353,0.98706,-0.25146;
18:13:15.763,0.36914,0.97925,-0.24805;
18:13:15.773,0.37109,0.97852,-0.24902;
18:13:15.783,0.37695,0.98657,-0.24390;
18:13:15.793,0.38452,0.99048,-0.24292;
18:13:15.803,0.39038,0.98242,-0.23877;
18:13:15.813,0.39111,0.96802,-0.23462;
18:13:15.823,0.39111,0.95239,-0.23291;
18:13:15.833,0.38892,0.93848,-0.23267;
18:13:15.843,0.38721,0.92554,-0.23242;
18:13:15.853,0.39063,0.90649,-0.22900;
18:13:15.863,0.39307,0.89819,-0.22437;
18:13:15.873,0.39648,0.89966,-0.22559;
18:13:15.883,0.39941,0.90308,-0.23120;
18:13:15.893,0.40137,0.90332,-0.23804;
18:13:15.903,0.40771,0.90576,-0.24512;
18:13:15.913,0.41260,0.91064,-0.24951;
18:13:15.923,0.42139,0.91528,-0.24487;
18:13:15.933,0.42749,0.91992,-0.23926;
18:13:15.943,0.43164,0.92139,-0.23975;
18:13:15.953,0.43726,0.92432,-0.23413;
18:13:15.963,0.43848,0.92188,-0.24121;
18:13:15.973,0.43433,0.92017,-0.24390;
18:13:15.983,0.42847,0.92407,-0.24854;
18:13:15.993,0.42554,0.92505,-0.25659;
18:13:16.003,0.41968,0.93091,-0.25513;
18:13:16.013,0.41479,0.93408,-0.25171;
18:13:16.023,0.41187,0.94092,-0.24731;
18:13:16.033,0.41138,0.94922,-0.25269;
18:13:16.043,0.41626,0.95215,-0.26733;
18:13:16.053,0.42627,0.95874,-0.28760;
18:13:16.063,0.43115,0.95337,-0.31055;
18:13:16.073,0.42847,0.95020,-0.32935;
18:13:16.083,0.42261,0.95020,-0.32520;
18:13:16.093,0.41919,0.95264,-0.31226;
18:13:16.103,0.41553,0.96191,-0.29419;
18:13:16.113,0.40723,0.95776,-0.29883;
18:13:16.123,0.39746,0.95776,-0.33081;
18:13:16.133,0.38818,0.97388,-0.34668;
18:13:16.143,0.37891,0.98926,-0.35742;
18:13:16.153,0.35303,0.98291,-0.34375;
18:13:16.163,0.34595,0.97705,-0.33130;
18:13:16.173,0.35156,0.99097,-0.32642;
18:13:16.183,0.36011,1.02466,-0.31274;
18:13:16.193,0.37622,1.08276,-0.28979;
18:13:16.203,0.39136,1.15479,-0.28442;
18:13:16.213,0.39893,1.18677,-0.30371;
18:13:16.223,0.39355,1.17822,-0.32739;
18:13:16.233,0.36646,1.14600,-0.34741;
18:13:16.243,0.32642,1.12305,-0.36548;
18:13:16.253,0.28711,1.10059,-0.37671;
18:13:16.263,0.26416,1.06152,-0.38281;
18:13:16.273,0.24976,1.03003,-0.37720;
18:13:16.283,0.23755,1.00122,-0.36401;
18:13:16.293,0.22510,0.97778,-0.33887;
18:13:16.303,0.20239,0.96069,-0.32300;
18:13:16.313,0.18066,0.95264,-0.31787;
18:13:16.323,0.16211,0.94580,-0.32129;
18:13:16.333,0.14478,0.94873,-0.33081;
18:13:16.343,0.13745,0.94604,-0.32983;
18:13:16.353,0.13867,0.93970,-0.33789;
18:13:16.363,0.13696,0.94214,-0.34473;
18:13:16.373,0.12695,0.94287,-0.33887;
18:13:16.383,0.11377,0.94580,-0.33740;
18:13:16.393,0.09937,0.96875,-0.34497;
18:13:16.403,0.08960,0.98608,-0.35840;
18:13:16.413,0.07593,0.96387,-0.35742;
18:13:16.423,0.06885,0.93726,-0.34399;
18:13:16.433,0.05444,0.92310,-0.32202;
18:13:16.443,0.02710,0.92456,-0.31201;
18:13:16.453,0.00439,0.94360,-0.33105;
18:13:16.463,-0.05981,0.93726,-0.36182;
18:13:16.473,-0.05762,0.96436,-0.37769;
18:13:16.483,-0.05371,0.95410,-0.37036;
18:13:16.493,-0.06421,0.94092,-0.35083;
18:13:16.503,-0.08887,0.93115,-0.31909;
18:13:16.513,-0.10693,0.91553,-0.30200;
18:13:16.523,-0.11475,0.90845,-0.30396;
18:13:16.533,-0.12207,0.91553,-0.31982;
18:13:16.543,-0.13110,0.91406,-0.33105;
18:13:16.553,-0.13965,0.90991,-0.34375;
18:13:16.563,-0.14648,0.89917,-0.35547;
18:13:16.573,-0.15918,0.87695,-0.35815;
18:13:16.583,-0.18115,0.85449,-0.35278;
18:13:16.593,-0.20752,0.84033,-0.34277;
18:13:16.603,-0.22949,0.84155,-0.33716;
18:13:16.613,-0.24268,0.83545,-0.33960;
18:13:16.623,-0.25830,0.83276,-0.34229;
18:13:16.633,-0.28223,0.82983,-0.34497;
18:13:16.643,-0.29614,0.81372,-0.36084;
18:13:16.653,-0.30859,0.80835,-0.38354;
18:13:16.663,-0.31982,0.81274,-0.40186;
18:13:16.673,-0.31226,0.81738,-0.40918;
18:13:16.683,-0.30225,0.81836,-0.40747;
18:13:16.693,-0.29663,0.81714,-0.38989;
18:13:16.703,-0.30200,0.80786,-0.37036;
18:13:16.713,-0.32104,0.80298,-0.34448;
18:13:16.723,-0.34570,0.79932,-0.33789;
18:13:16.733,-0.36816,0.78687,-0.36035;
18:13:16.743,-0.38501,0.79297,-0.40063;
18:13:16.753,-0.38525,0.82935,-0.48071;
18:13:16.763,-0.40356,0.84668,-0.46948;
18:13:16.773,-0.45825,0.79468,-0.45166;
18:13:16.783,-0.47021,0.78174,-0.46411;
18:13:16.793,-0.47803,0.78394,-0.48389;
18:13:16.803,-0.48657,0.81128,-0.49438;
18:13:16.813,-0.50415,0.82666,-0.50024;
18:13:16.823,-0.52881,0.82129,-0.49585;
18:13:16.833,-0.54248,0.79028,-0.49585;
18:13:16.843,-0.55322,0.74146,-0.49951;
18:13:16.853,-0.55322,0.69141,-0.49951;
18:13:16.863,-0.55835,0.64795,-0.49146;
18:13:16.873,-0.56104,0.61719,-0.47534;
18:13:16.883,-0.54175,0.58936,-0.44922;
18:13:16.893,-0.52905,0.64160,-0.47754;
18:13:16.903,-0.53882,0.72021,-0.48340;
18:13:16.913,-0.53906,0.73926,-0.46899;
18:13:16.923,-0.52979,0.72144,-0.43457;
18:13:16.933,-0.50195,0.71265,-0.37891;
18:13:16.943,-0.45654,0.70630,-0.34766;
18:13:16.953,-0.40991,0.69604,-0.35889;
18:13:16.963,-0.36694,0.69751,-0.38208;
18:13:16.973,-0.32837,0.74780,-0.39673;
18:13:16.983,-0.29272,0.78809,-0.39258;
18:13:16.993,-0.24658,0.82104,-0.37427;
18:13:17.003,-0.20874,0.86646,-0.35181;
18:13:17.013,-0.17236,0.88818,-0.32788;
18:13:17.023,-0.13403,0.89233,-0.31006;
18:13:17.033,-0.09521,0.89453,-0.30957;
18:13:17.043,0.02783,0.91577,-0.32593;
18:13:17.053,-0.04224,0.93335,-0.35327;
18:13:17.063,-0.08228,0.94629,-0.37769;
18:13:17.073,-0.11841,0.92627,-0.38086;
18:13:17.083,-0.14941,0.88989,-0.37109;
18:13:17.093,-0.17554,0.84375,-0.35718;
18:13:17.103,-0.19702,0.80005,-0.36792;
18:13:17.113,-0.21436,0.77563,-0.39209;
18:13:17.123,-0.22607,0.74561,-0.41040;
18:13:17.133,-0.23584,0.71021,-0.43823;
18:13:17.143,-0.24316,0.68848,-0.46069;
18:13:17.153,-0.25293,0.67139,-0.47876;
18:13:17.163,-0.26392,0.66504,-0.49170;
18:13:17.173,-0.28101,0.66724,-0.49707;
18:13:17.183,-0.29858,0.66455,-0.49463;
18:13:17.193,-0.30273,0.66895,-0.49146;
18:13:17.203,-0.30713,0.68213,-0.49927;
18:13:17.213,-0.31860,0.68896,-0.50854;
18:13:17.223,-0.32349,0.69116,-0.52417;
18:13:17.233,-0.31909,0.69116,-0.54028;
18:13:17.243,-0.31128,0.69287,-0.55127;
18:13:17.253,-0.30371,0.68848,-0.56079;
18:13:17.263,-0.29907,0.69116,-0.55957;
18:13:17.273,-0.29248,0.70410,-0.55591;
18:13:17.283,-0.28516,0.71924,-0.55249;
18:13:17.293,-0.29028,0.73389,-0.54541;
18:13:17.303,-0.29492,0.75000,-0.52759;
18:13:17.313,-0.29419,0.77319,-0.51807;
18:13:17.323,-0.29712,0.77710,-0.52393;
18:13:17.333,-0.29590,0.77173,-0.55200;
18:13:17.343,-0.27612,0.77124,-0.53613;
18:13:17.353,-0.28418,0.77588,-0.53101;
18:13:17.363,-0.27075,0.77271,-0.52856;
18:13:17.373,-0.24951,0.67480,-0.52930;
18:13:17.383,-0.24438,0.68115,-0.52881;
18:13:17.393,-0.23438,0.70020,-0.52515;
18:13:17.403,-0.23047,0.73145,-0.52222;
18:13:17.413,-0.22876,0.74829,-0.53198;
18:13:17.423,-0.22632,0.73169,-0.54907;
18:13:17.433,-0.23779,0.70117,-0.55933;
18:13:17.443,-0.26538,0.68066,-0.56323;
18:13:17.453,-0.28247,0.67798,-0.56787;
18:13:17.463,-0.28833,0.68481,-0.56836;
18:13:17.473,-0.28198,0.70850,-0.55591;
18:13:17.483,-0.26587,0.74194,-0.55078;
18:13:17.493,-0.25415,0.75391,-0.55225;
18:13:17.503,-0.24243,0.76807,-0.55469;
18:13:17.513,-0.23486,0.78638,-0.54468;
18:13:17.523,-0.23315,0.79639,-0.52832;
18:13:17.533,-0.23193,0.81445,-0.52344;
18:13:17.543,-0.22583,0.83398,-0.52148;
18:13:17.553,-0.21606,0.84570,-0.52075;
18:13:17.563,-0.19629,0.86597,-0.50684;
18:13:17.573,-0.10791,0.89624,-0.46704;
18:13:17.583,-0.09595,0.90479,-0.36597;
18:13:17.593,-0.08887,0.89478,-0.31616;
18:13:17.603,-0.09009,0.88257,-0.31543;
18:13:17.613,-0.10669,0.87207,-0.33911;
18:13:17.623,-0.13574,0.86304,-0.35327;
18:13:17.633,-0.14819,0.84692,-0.35522;
18:13:17.643,-0.13086,0.83643,-0.34839;
18:13:17.653,-0.10156,0.84277,-0.35205;
18:13:17.663,-0.05957,0.87109,-0.35498;
18:13:17.673,-0.01782,0.90674,-0.34131;
18:13:17.683,0.00317,0.93115,-0.32446;
18:13:17.693,-0.01587,0.97388,-0.30981;
18:13:17.703,-0.03247,1.10449,-0.28516;
18:13:17.713,-0.00684,1.20898,-0.30005;
18:13:17.723,0.00977,1.20410,-0.31812;
18:13:17.733,-0.00488,1.12964,-0.29712;
18:13:17.743,-0.00903,1.06274,-0.27026;
18:13:17.753,-0.03247,0.93652,-0.13574;
18:13:17.763,-0.05029,0.82837,-0.04736;
18:13:17.773,-0.04004,0.74658,-0.00928;
18:13:17.783,-0.04224,0.78516,0.25146;
18:13:17.793,0.40796,1.19824,-0.55127;
18:13:17.803,0.58911,0.93750,-1.41431;
18:13:17.813,0.56543,0.64429,-1.40625;
18:13:17.823,0.45947,0.45898,-0.70532;
18:13:17.833,-0.04077,0.33423,0.17896;
18:13:17.843,-0.42603,0.22559,0.16846;
18:13:17.853,-0.35205,0.66040,0.35083;
18:13:17.863,-0.53101,0.91016,0.54980;
18:13:17.873,-0.48193,1.27246,0.45093;
18:13:17.883,-0.23560,1.77539,-0.20044;
18:13:17.893,-0.07544,1.39575,-0.10596;
18:13:17.903,-0.13477,0.78442,0.31421;
18:13:17.913,-0.33423,0.95459,0.40161;
18:13:17.923,-0.46606,1.16235,0.46069;
18:13:17.933,-0.31445,0.94189,0.56494;
18:13:17.943,-0.24316,0.91772,0.46216;
18:13:17.953,-0.22949,1.05225,0.43896;
18:13:17.963,-0.21069,1.12769,0.39722;
18:13:17.973,-0.22266,1.09839,0.41382;
18:13:17.983,-0.26221,1.02026,0.48022;
18:13:17.993,-0.30176,0.98877,0.58862;
18:13:18.003,-0.31274,1.02710,0.66821;
18:13:18.013,-0.28418,1.09326,0.71899;
18:13:18.023,-0.25146,1.11426,0.71143;
18:13:18.033,-0.22485,1.04517,0.68726;
18:13:18.043,-0.17993,0.99512,0.68384;
18:13:18.053,-0.13550,1.00269,0.68018;
18:13:18.063,-0.09985,1.00977,0.67505;
18:13:18.073,-0.06934,0.99023,0.69873;
18:13:18.083,-0.03564,0.99170,0.72412;
18:13:18.093,-0.00073,1.03345,0.71191;
18:13:18.103,0.02783,1.07983,0.65649;
18:13:18.113,0.03076,1.09668,0.58521;
18:13:18.123,0.01685,1.06372,0.53735;
18:13:18.133,-0.01880,1.01025,0.49902;
18:13:18.143,0.02661,1.03467,0.46484;
18:13:18.153,0.03491,1.03589,0.44678;
18:13:18.163,0.03345,1.03638,0.43188;
18:13:18.173,0.02661,1.02344,0.40381;
18:13:18.183,0.03467,1.03467,0.38135;
18:13:18.193,0.05615,1.04492,0.37622;
18:13:18.203,0.08325,1.05200,0.36621;
18:13:18.213,0.10620,1.05298,0.35815;
18:13:18.223,0.12915,1.02759,0.35474;
18:13:18.233,0.13818,0.99512,0.35010;
18:13:18.243,0.14795,0.97705,0.34253;
18:13:18.253,0.16528,0.97998,0.32275;
18:13:18.263,0.17993,0.98804,0.31470;
18:13:18.273,0.19946,1.00269,0.31689;
18:13:18.283,0.22559,1.00610,0.29712;
18:13:18.293,0.25854,0.99487,0.28125;
18:13:18.303,0.27441,0.98218,0.28931;
18:13:18.313,0.28125,0.96704,0.29956;
18:13:18.323,0.29004,0.94971,0.29370;
18:13:18.333,0.30029,0.93921,0.28174;
18:13:18.343,0.30469,0.92603,0.27490;
18:13:18.353,0.31641,0.91577,0.26489;
18:13:18.363,0.32764,0.91919,0.24707;
18:13:18.373,0.33643,0.92651,0.22217;
18:13:18.383,0.34863,0.92114,0.21240;
18:13:18.393,0.34839,0.89624,0.22949;
18:13:18.403,0.35010,0.87524,0.25366;
18:13:18.413,0.34863,0.86084,0.26929;
18:13:18.423,0.34668,0.84570,0.26855;
18:13:18.433,0.37061,0.89941,0.25659;
18:13:18.443,0.35718,0.99194,0.22095;
18:13:18.453,0.33936,1.01147,0.20654;
18:13:18.463,0.33374,1.04468,0.20483;
18:13:18.473,0.33228,1.08887,0.20117;
18:13:18.483,0.32813,1.14917,0.18970;
18:13:18.493,0.31689,1.22974,0.16187;
18:13:18.503,0.29053,1.28906,0.14526;
18:13:18.513,0.27246,1.32080,0.14087;
18:13:18.523,0.25439,1.35718,0.14502;
18:13:18.533,0.22583,1.40674,0.15039;
18:13:18.543,0.20752,1.47144,0.14941;
18:13:18.553,0.20093,1.51538,0.14990;
18:13:18.563,0.20166,1.57007,0.16357;
18:13:18.573,0.19165,1.64941,0.21069;
18:13:18.583,0.17358,1.70044,0.24829;
18:13:18.593,0.16113,1.72241,0.25537;
18:13:18.603,0.15698,1.74805,0.25415;
18:13:18.613,0.15723,1.76563,0.27246;
18:13:18.623,0.15283,1.81250,0.34912;
18:13:18.633,0.15820,1.88721,0.42749;
18:13:18.643,0.20020,1.91650,0.43506;
18:13:18.653,0.23413,1.93750,0.42920;
18:13:18.663,0.22388,1.93359,0.44043;
18:13:18.673,0.18530,1.85181,0.47754;
18:13:18.683,0.12769,1.71216,0.52026;
18:13:18.693,0.06958,1.54419,0.52612;
18:13:18.703,0.05469,1.41919,0.50708;
18:13:18.713,0.06982,1.31470,0.42603;
18:13:18.723,0.04712,1.17822,0.22534;
18:13:18.733,-0.09253,0.51489,0.13501;
18:13:18.743,-0.10181,0.39185,0.18530;
18:13:18.753,-0.12817,0.32275,0.26196;
18:13:18.763,-0.16333,0.17969,0.32837;
18:13:18.773,-0.22412,0.08276,0.37402;
18:13:18.783,-0.29590,-0.00830,0.35767;
18:13:18.793,-0.32837,-0.05493,0.34790;
18:13:18.803,-0.35181,-0.06372,0.34546;
18:13:18.813,-0.36426,-0.13208,0.37524;
18:13:18.823,-0.37036,-0.18042,0.43579;
18:13:18.833,-0.37573,-0.25439,0.46094;
18:13:18.843,-0.36279,-0.42944,0.41626;
18:13:18.853,-0.36646,-0.57397,0.34082;
18:13:18.863,-0.35278,-0.62549,0.27393;
18:13:18.873,-0.38159,-0.64795,0.25757;
18:13:18.883,-0.41431,-0.63037,0.31274;
18:13:18.893,-0.43213,-0.50024,0.37622;
18:13:18.903,-0.44922,-0.35620,0.43945;
18:13:18.913,-0.46777,-0.29663,0.45825;
18:13:18.923,-0.50586,-0.36621,0.37988;
18:13:18.933,-0.44434,-0.46143,0.33472;
18:13:18.943,-0.29736,-0.52319,0.43115;
18:13:18.953,-0.26050,-0.64966,0.65625;
18:13:18.963,-0.35205,-0.92114,0.93970;
18:13:18.973,-0.08032,-1.14307,0.94897;
18:13:18.983,0.22681,-0.75171,0.66724;
18:13:18.993,0.31445,-0.47095,0.63525;
18:13:19.003,0.42017,-0.62378,0.61475;
18:13:19.013,0.64819,-0.61108,0.37939;
18:13:19.023,1.09521,0.88770,-1.53857;
18:13:19.033,0.70654,0.98779,-3.46606;
18:13:19.043,0.99927,1.59863,-4.64355;
18:13:19.053,0.94214,1.59131,-4.83423;
18:13:19.063,0.41943,0.67383,-4.38965;
18:13:19.073,0.26318,-0.23462,-3.48730;
18:13:19.083,0.40796,-0.32104,-1.55591;
18:13:19.093,0.23145,0.38599,0.09009;
18:13:19.103,0.60205,1.19092,0.41626;
18:13:19.113,2.16846,2.10254,-0.25903;
18:13:19.123,2.80444,1.71973,-0.52466;
18:13:19.133,1.83496,1.04272,-1.12183;
18:13:19.143,1.33545,1.54126,-1.84473;
18:13:19.153,1.37720,1.56494,-1.86792;
18:13:19.163,1.18359,1.10010,-1.62134;
18:13:19.173,0.89868,0.64844,-1.16284;
18:13:19.183,0.53369,0.41284,-0.90845;
18:13:19.193,0.10449,0.39624,-0.83203;
18:13:19.203,-0.00464,0.51831,-0.88135;
18:13:19.213,-0.00464,0.64331,-0.92627;
18:13:19.223,0.05786,0.71924,-0.92505;
18:13:19.233,0.08374,0.69727,-0.90308;
18:13:19.243,0.10327,0.69995,-0.86035;
18:13:19.253,0.12622,0.74194,-0.80322;
18:13:19.263,0.17578,0.79150,-0.74585;
18:13:19.273,0.20874,0.78003,-0.68237;
18:13:19.283,0.40991,0.69312,-0.68848;
18:13:19.293,0.56665,0.57007,-0.76563;
18:13:19.303,0.75708,1.04810,-0.97192;
18:13:19.313,0.62817,0.98267,-1.12720;
18:13:19.323,0.58325,0.78613,-1.08838;
18:13:19.333,0.59619,0.63354,-1.07202;
18:13:19.343,0.60498,0.58130,-1.01123;
18:13:19.353,0.75195,0.70898,-0.75732;
18:13:19.363,0.67651,0.82520,-0.64551;
18:13:19.373,0.25830,0.70288,-0.58716;
18:13:19.383,0.13354,0.64600,-0.49634;
18:13:19.393,0.16382,1.10400,-0.32642;
18:13:19.403,0.07861,1.61841,-0.18872;
18:13:19.413,-0.36230,1.71045,-0.22119;
18:13:19.423,-0.49243,1.61133,-0.37476;
18:13:19.433,-0.42480,1.29688,-0.49585;
18:13:19.443,-0.29785,0.80518,-0.39331;
18:13:19.453,0.07837,0.33618,0.03906;
18:13:19.463,0.12598,0.42188,0.16016;
18:13:19.473,-0.07007,0.43359,0.25610;
18:13:19.483,-0.17554,0.42041,0.33447;
18:13:19.493,-0.23950,0.47290,0.34448;
18:13:19.503,-0.21191,0.56885,0.40381;
18:13:19.513,-0.16040,0.74854,0.58691;
18:13:19.523,-0.05591,1.03296,0.94189;
18:13:19.533,0.06543,1.38403,1.35498;
18:13:19.543,0.12915,1.70703,1.51807;
18:13:19.553,0.17432,1.87183,1.52563;
18:13:19.563,0.10181,1.84570,1.57178;
18:13:19.573,0.00244,1.64355,1.65723;
18:13:19.583,-0.16772,1.01514,1.50781;
18:13:19.593,-0.19116,0.16455,1.27979;
18:13:19.603,-0.21533,-0.30615,1.26123;
18:13:19.613,-0.15747,-0.64014,1.25220;
18:13:19.623,-0.03345,-1.12866,1.33398;
18:13:19.633,0.10400,-1.55811,1.44727;
18:13:19.643,0.25977,-1.93286,1.61377;
18:13:19.653,0.40063,-2.16309,1.73242;
18:13:19.663,0.52271,-2.04761,1.56689;
18:13:19.673,0.67822,-1.56982,1.24658;
18:13:19.683,0.88403,-1.15674,1.02344;
18:13:19.693,1.22949,-0.54712,-0.65820;
18:13:19.703,0.53052,-1.02588,-1.04712;
18:13:19.713,1.80322,-1.15332,-1.18091;
18:13:19.723,2.34033,0.88599,-2.07324;
18:13:19.733,1.40186,1.18701,-2.17041;
18:13:19.743,1.73389,0.06128,-3.23413;
18:13:19.753,2.13818,0.28809,-4.00903;
18:13:19.763,2.30151,0.44971,-3.99146;
18:13:19.773,1.45630,-0.69775,-3.27490;
18:13:19.783,0.88477,-2.45483,-1.48877;
18:13:19.793,0.28979,-2.40283,1.94971;
18:13:19.803,1.20337,1.59497,3.59399;
18:13:19.813,3.44556,7.09839,1.54370;
18:13:19.823,2.49731,7.15942,-0.40186;
18:13:19.833,0.12207,3.56567,-1.20264;
18:13:19.843,0.21753,1.75122,-1.50854;
18:13:19.853,0.48901,0.86621,-1.27881;
18:13:19.863,0.48047,0.19141,-0.75513;
18:13:19.873,0.47632,-0.59668,-0.29150;
18:13:19.883,0.42725,-1.28003,-0.36914;
18:13:19.893,0.90747,-0.65430,-0.40869;
18:13:19.903,0.56128,0.08179,-0.51147;
18:13:19.913,0.54614,0.24731,-0.56836;
18:13:19.923,0.57471,0.37109,-0.62305;
18:13:19.933,0.62695,0.50513,-0.66724;
18:13:19.943,0.60864,0.62305,-0.71021;
18:13:19.953,0.56543,0.73853,-0.74634;
18:13:19.963,0.53345,0.79126,-0.75366;
18:13:19.973,0.51196,0.77246,-0.73291;
18:13:19.983,0.51880,0.69946,-0.69385;
18:13:19.993,0.55347,0.63843,-0.65308;
18:13:20.003,0.54443,0.53931,-0.59839;
18:13:20.013,0.53223,0.49976,-0.59863;
18:13:20.023,0.53223,0.46069,-0.60791;
18:13:20.033,0.54614,0.43994,-0.63086;
18:13:20.043,0.55518,0.41748,-0.66064;
18:13:20.053,0.56226,0.40112,-0.67578;
18:13:20.063,0.58740,0.40869,-0.67993;
18:13:20.073,0.59863,0.40796,-0.67163;
18:13:20.083,0.59106,0.40845,-0.65601;
18:13:20.093,0.57886,0.41943,-0.63965;
18:13:20.103,0.57275,0.44751,-0.61450;
18:13:20.113,0.55127,0.46265,-0.58179;
18:13:20.123,0.52612,0.45386,-0.55078;
18:13:20.133,0.52051,0.45654,-0.53027;
18:13:20.143,0.52148,0.47314,-0.51489;
18:13:20.153,0.53320,0.49146,-0.50977;
18:13:20.163,0.56543,0.51294,-0.51416;
18:13:20.173,0.68408,0.58203,-0.51221;
18:13:20.183,0.78223,0.62646,-0.52393;
18:13:20.193,0.83350,0.64844,-0.52905;
18:13:20.203,0.89038,0.67871,-0.54834;
18:13:20.213,0.94653,0.72363,-0.57446;
18:13:20.223,0.98657,0.77319,-0.60400;
18:13:20.233,1.00146,0.81519,-0.63574;
18:13:20.243,0.99854,0.85425,-0.65527;
18:13:20.253,0.98267,0.88306,-0.66895;
18:13:20.263,0.96362,0.89063,-0.66260;
18:13:20.273,0.93799,0.87305,-0.64453;
18:13:20.283,0.91675,0.84790,-0.62549;
18:13:20.293,0.92749,0.80957,-0.59546;
18:13:20.303,0.92627,0.79663,-0.58984;
18:13:20.313,0.91089,0.78271,-0.59229;
18:13:20.323,0.89575,0.77710,-0.58862;
18:13:20.333,0.88647,0.77100,-0.58203;
18:13:20.343,0.88208,0.76855,-0.57837;
18:13:20.353,0.87915,0.76318,-0.57397;
18:13:20.363,0.87012,0.74268,-0.56958;
18:13:20.373,0.85303,0.71704,-0.55225;
18:13:20.383,0.82251,0.68701,-0.52515;
18:13:20.393,0.77979,0.65649,-0.50244;
18:13:20.403,0.72290,0.62695,-0.48438;
18:13:20.413,0.66382,0.59399,-0.46436;
18:13:20.423,0.61597,0.55835,-0.44922;
18:13:20.433,0.56567,0.52539,-0.43945;
18:13:20.443,0.52148,0.50098,-0.42358;
18:13:20.453,0.42529,0.50049,-0.37842;
18:13:20.463,0.38403,0.51636,-0.35498;
18:13:20.473,0.37061,0.53687,-0.34302;
18:13:20.483,0.35864,0.56201,-0.32642;
18:13:20.493,0.34790,0.58154,-0.31934;
18:13:20.503,0.33228,0.59766,-0.30322;
18:13:20.513,0.32544,0.60913,-0.29028;
18:13:20.523,0.32715,0.62305,-0.28809;
18:13:20.533,0.33887,0.64014,-0.28638;
18:13:20.543,0.35376,0.65259,-0.28882;
18:13:20.553,0.36938,0.66040,-0.29736;
18:13:20.563,0.39160,0.67139,-0.31445;
18:13:20.573,0.42725,0.68506,-0.34473;
18:13:20.583,0.47461,0.72803,-0.37573;
18:13:20.593,0.51904,0.78198,-0.40381;
18:13:20.603,0.56616,0.81470,-0.42505;
18:13:20.613,0.68970,0.84326,-0.43750;
18:13:20.623,0.76025,0.84937,-0.44995;
18:13:20.633,0.82080,0.84351,-0.47192;
18:13:20.643,0.87915,0.82568,-0.49170;
18:13:20.653,0.93457,0.79224,-0.49609;
18:13:20.663,0.96826,0.75220,-0.49243;
18:13:20.673,0.98438,0.69849,-0.48462;
18:13:20.683,0.97412,0.64551,-0.47095;
18:13:20.693,0.94458,0.59985,-0.46240;
18:13:20.703,0.91724,0.57617,-0.47095;
18:13:20.713,0.92334,0.57251,-0.49487;
18:13:20.723,0.93262,0.54688,-0.51343;
18:13:20.733,0.91406,0.50366,-0.52441;
18:13:20.743,0.84155,0.49390,-0.48755;
18:13:20.753,0.75903,0.49658,-0.47485;
18:13:20.763,0.72021,0.49756,-0.48999;
18:13:20.773,0.68164,0.49463,-0.50684;
18:13:20.783,0.65161,0.48120,-0.52856;
18:13:20.793,0.62451,0.46191,-0.56543;
18:13:20.803,0.61133,0.43823,-0.61450;
18:13:20.813,0.59985,0.41846,-0.65674;
18:13:20.823,0.58545,0.40625,-0.68677;
18:13:20.833,0.59009,0.40601,-0.68115;
18:13:20.843,0.63354,0.39307,-0.66162;
18:13:20.853,0.68896,0.33228,-0.64844;
18:13:20.863,0.70313,0.22461,-0.65674;
18:13:20.873,0.68799,0.07788,-0.67554;
18:13:20.883,0.67456,-0.03931,-0.69629;
18:13:20.893,0.64893,-0.05493,-0.68774;
18:13:20.903,0.65479,0.00806,-0.66821;
18:13:20.913,0.69800,0.03442,-0.68091;
18:13:20.923,0.76709,0.07910,-0.80786;
18:13:20.933,0.83374,0.13599,-0.92993;
18:13:20.943,0.98364,0.15039,-0.95190;
18:13:20.953,1.11816,0.15576,-0.90625;
18:13:20.963,1.08081,0.15308,-0.77100;
18:13:20.973,1.00317,0.23047,-0.60132;
18:13:20.983,0.91895,0.45508,-0.41650;
18:13:20.993,0.80566,0.65015,-0.27515;
18:13:21.003,0.77808,0.78271,-0.26563;
18:13:21.013,0.77393,0.97925,-0.30225;
18:13:21.023,0.67407,1.13843,-0.24658;
18:13:21.033,0.66162,1.39331,-0.13403;
18:13:21.043,0.51709,0.87280,-0.18872;
18:13:21.053,0.76221,0.33325,-0.19238;
18:13:21.063,0.76147,0.63110,-0.01733;
18:13:21.073,0.58740,0.95703,0.82837;
18:13:21.083,0.36792,0.58911,1.10400;
18:13:21.093,0.39063,0.64307,0.88306;
18:13:21.103,0.47852,1.01465,0.78027;
18:13:21.113,0.54297,1.24463,0.68628;
18:13:21.123,0.53198,1.26001,0.71826;
18:13:21.133,0.48218,1.27173,0.74414;
18:13:21.143,0.43481,1.36621,0.78418;
18:13:21.153,0.43262,1.46411,0.83228;
18:13:21.163,0.43774,1.40771,0.86011;
18:13:21.173,0.40503,1.36743,0.87036;
18:13:21.183,0.38110,1.33008,0.87866;
18:13:21.193,0.36011,1.27173,0.89160;
18:13:21.203,0.32422,1.25122,0.84741;
18:13:21.213,0.31421,1.22388,0.77539;
18:13:21.223,0.35254,1.21313,0.77563;
18:13:21.233,0.34692,1.24683,0.86987;
18:13:21.243,0.28809,1.31250,0.98560;
18:13:21.253,0.25659,1.37769,1.07324;
18:13:21.263,0.22290,1.43457,1.12744;
18:13:21.273,0.20605,1.50171,1.13892;
18:13:21.283,0.19214,1.48828,1.10669;
18:13:21.293,0.15356,1.41235,1.13208;
18:13:21.303,0.13428,1.28027,1.13867;
18:13:21.313,0.08081,1.14331,1.19800;
18:13:21.323,0.04712,0.99194,1.32544;
18:13:21.333,0.17554,0.53442,1.21484;
18:13:21.343,0.24390,0.40894,1.08081;
18:13:21.353,0.29932,0.34814,1.00244;
18:13:21.363,0.38525,0.27710,0.95630;
18:13:21.373,0.44971,0.22119,0.96094;
18:13:21.383,0.52051,0.00977,0.98486;
18:13:21.393,0.55518,-0.37231,1.01514;
18:13:21.403,0.86694,-0.34741,-1.20508;
18:13:21.413,1.32861,-0.02930,-1.60645;
18:13:21.423,1.04932,0.26001,-1.68774;
18:13:21.433,1.12280,0.67188,-1.63257;
18:13:21.443,0.90283,0.33350,-3.24780;
18:13:21.453,0.84180,0.43481,-2.96729;
18:13:21.463,0.62793,-0.05688,-2.46118;
18:13:21.473,0.52832,-0.56445,-2.31567;
18:13:21.483,0.47168,-0.97974,-1.75073;
18:13:21.493,0.87646,-1.42529,-0.77686;
18:13:21.503,1.16675,-1.60938,-0.07495;
18:13:21.513,1.02222,-0.51978,0.26025;
18:13:21.523,1.12573,1.52271,0.04199;
18:13:21.533,1.39526,2.80835,-0.71655;
18:13:21.543,1.52124,2.66187,-1.05518;
18:13:21.553,1.21143,1.73193,-1.06714;
18:13:21.563,1.13452,0.67676,-1.13892;
18:13:21.573,0.76733,0.28564,-0.80835;
18:13:21.583,0.45557,0.00806,-0.80835;
18:13:21.593,0.35889,0.00244,-0.91504;
18:13:21.603,0.39966,0.20215,-1.02417;
18:13:21.613,0.46143,0.33691,-1.17871;
18:13:21.623,0.51978,0.40723,-1.34204;
18:13:21.633,0.54712,0.39990,-1.42065;
18:13:21.643,0.64307,0.39331,-1.40088;
18:13:21.653,0.79565,0.50317,-1.32178;
18:13:21.663,0.94922,0.67480,-1.19507;
18:13:21.673,1.01416,0.78833,-1.08057;
18:13:21.683,0.97241,0.79907,-0.99609;
18:13:21.693,0.85059,0.75928,-0.93164;
18:13:21.703,0.73877,0.75195,-0.87500;
18:13:21.713,0.66528,0.75659,-0.84912;
18:13:21.723,0.59448,0.70020,-0.84741;
18:13:21.733,0.62061,0.66675,-0.84814;
18:13:21.743,0.72095,0.60693,-0.86133;
18:13:21.753,0.77002,0.52417,-0.82959;
18:13:21.763,0.78687,0.53418,-0.72681;
18:13:21.773,0.77637,0.59326,-0.64160;
18:13:21.783,0.67725,0.55762,-0.58130;
18:13:21.793,0.58228,0.40088,-0.45996;
18:13:21.803,0.53271,0.29272,-0.28955;
18:13:21.813,0.50024,0.25391,-0.08789;
18:13:21.823,0.44922,0.35742,0.10693;
18:13:21.833,0.39600,0.46460,0.30127;
18:13:21.843,0.30054,0.66821,0.52759;
18:13:21.853,0.33618,0.69360,0.51318;
18:13:21.863,0.34839,0.75073,0.54443;
18:13:21.873,0.34766,0.86938,0.56177;
18:13:21.883,0.39990,0.83398,0.49561;
18:13:21.893,0.52197,0.85547,0.38916;
18:13:21.903,0.80884,0.90283,0.37134;
18:13:21.913,0.43311,0.91602,0.13525;
18:13:21.923,-0.34155,0.73218,-0.07227;
18:13:21.933,-0.07617,0.58203,0.00537;
18:13:21.943,0.18652,0.68677,-0.10742;
18:13:21.953,0.61230,0.66382,-0.15894;
18:13:21.963,1.18457,1.07861,-0.03760;
18:13:21.973,-0.17383,0.87622,-0.63354;
18:13:21.983,-0.27686,0.77148,-0.59912;
18:13:21.993,0.64502,1.29248,-0.34619;
18:13:22.003,0.44580,0.97412,-0.32959;
18:13:22.013,0.24414,0.66528,-0.12744;
18:13:22.023,0.47754,0.72021,0.14990;
18:13:22.033,0.46851,0.71313,0.21655;
18:13:22.043,0.37866,0.72998,0.21875;
18:13:22.053,0.44604,0.77710,0.21729;
18:13:22.063,0.47852,0.79077,0.20239;
18:13:22.073,0.50586,0.83032,0.16406;
18:13:22.083,0.53052,0.89087,0.15381;
18:13:22.093,0.54370,0.92725,0.13672;
18:13:22.103,0.52051,1.00073,0.12476;
18:13:22.113,0.51758,1.00073,0.13843;
18:13:22.123,0.53979,1.00098,0.11133;
18:13:22.133,0.69946,0.94458,0.15845;
18:13:22.143,0.78589,0.91162,0.20483;
18:13:22.153,0.87280,0.90137,0.22900;
18:13:22.163,0.92334,0.89380,0.21240;
18:13:22.173,0.95337,0.89917,0.19751;
18:13:22.183,0.98511,0.89429,0.20972;
18:13:22.193,1.01831,0.87402,0.24609;
18:13:22.203,1.03223,0.82935,0.28027;
18:13:22.213,1.05981,0.77490,0.30908;
18:13:22.223,1.10107,0.71948,0.33716;
18:13:22.233,1.12329,0.67236,0.36426;
18:13:22.243,1.11548,0.65015,0.36133;
18:13:22.253,1.08276,0.62646,0.32446;
18:13:22.263,1.05737,0.60181,0.27295;
18:13:22.273,1.03540,0.58325,0.22827;
18:13:22.283,1.00537,0.53223,0.18604;
18:13:22.293,0.96338,0.49316,0.15771;
18:13:22.303,0.92603,0.49243,0.14404;
18:13:22.313,0.90405,0.48633,0.14478;
18:13:22.323,0.90381,0.47974,0.16187;
18:13:22.333,0.90088,0.48047,0.17114;
18:13:22.343,0.88184,0.45996,0.18335;
18:13:22.353,0.86450,0.44873,0.19263;
18:13:22.363,0.82983,0.46094,0.18579;
18:13:22.373,0.78174,0.47144,0.17456;
18:13:22.383,0.73755,0.45874,0.15796;
18:13:22.393,0.69336,0.43774,0.14429;
18:13:22.403,0.65039,0.43213,0.12524;
18:13:22.413,0.62158,0.42041,0.11255;
18:13:22.423,0.64941,0.40503,0.11084;
18:13:22.433,0.65894,0.38843,0.13379;
18:13:22.443,0.67896,0.37549,0.16187;
18:13:22.453,0.70947,0.39331,0.18335;
18:13:22.463,0.75049,0.43384,0.20386;
18:13:22.473,0.77393,0.48267,0.22412;
18:13:22.483,0.78906,0.57080,0.24854;
18:13:22.493,0.80762,0.66382,0.25806;
18:13:22.503,0.81836,0.70972,0.24902;
18:13:22.513,0.82959,0.75049,0.25562;
18:13:22.523,0.89307,0.82275,0.34839;
18:13:22.533,0.89917,0.87012,0.39575;
18:13:22.543,0.91626,0.92700,0.42871;
18:13:22.553,0.91821,0.95581,0.44214;
18:13:22.563,0.91602,0.95874,0.45581;
18:13:22.573,0.94385,0.97534,0.46875;
18:13:22.583,0.96973,0.98535,0.47607;
18:13:22.593,0.95996,0.96826,0.51099;
18:13:22.603,0.94604,0.92017,0.50513;
18:13:22.613,0.93140,0.89624,0.43945;
18:13:22.623,0.92163,0.91675,0.48022;
18:13:22.633,0.90820,0.91455,0.52319;
18:13:22.643,0.82764,0.89526,0.50366;
18:13:22.653,0.74170,0.84448,0.49146;
18:13:22.663,0.69385,0.74121,0.47241;
18:13:22.673,0.65942,0.69604,0.46387;
18:13:22.683,0.64844,0.71899,0.45386;
18:13:22.693,0.64038,0.70166,0.46265;
18:13:22.703,0.63013,0.72925,0.59399;
18:13:22.713,0.69360,0.80493,0.50562;
18:13:22.723,0.71899,0.91699,0.49146;
18:13:22.733,0.78882,1.03760,0.54858;
18:13:22.743,0.87305,0.98682,0.63940;
18:13:22.753,0.93286,0.85229,0.73193;
18:13:22.763,1.02979,0.86743,0.67969;
18:13:22.773,1.12842,0.97314,0.43042;
18:13:22.783,1.12524,0.89063,0.22070;
18:13:22.793,1.10522,0.75708,0.15137;
18:13:22.803,1.10620,0.86597,-0.03809;
18:13:22.813,1.14722,1.03027,-0.23608;
18:13:22.823,1.24878,0.95483,-0.39307;
18:13:22.833,1.28638,0.76978,-0.61865;
18:13:22.843,1.25781,0.75830,-0.70239;
18:13:22.853,1.19775,0.89282,-0.64307;
18:13:22.863,1.10303,0.91992,-0.56714;
18:13:22.873,0.94873,0.81567,-0.47339;
18:13:22.883,0.74463,0.76538,-0.35522;
18:13:22.893,0.54858,0.70044,-0.22925;
18:13:22.903,0.39185,0.57886,-0.11450;
18:13:22.913,0.25513,0.46045,-0.00049;
18:13:22.923,0.11182,0.38599,0.17725;
18:13:22.933,-0.00073,0.36304,0.37378;
18:13:22.943,-0.11621,0.52124,0.53247;
18:13:22.953,-0.19165,0.90601,0.61646;
18:13:22.963,-0.24976,0.77612,0.50073;
18:13:22.973,-0.23975,0.64429,0.26270;
18:13:22.983,-0.16284,0.68750,0.14771;
18:13:22.993,-0.10498,-0.18433,0.26685;
18:13:23.003,0.08911,-0.24780,0.25269;
18:13:23.013,0.20898,0.15283,0.21680;
18:13:23.023,0.28491,0.54248,0.22217;
18:13:23.033,0.33691,0.76343,0.27222;
18:13:23.043,0.38037,0.89893,0.30029;
18:13:23.053,0.43799,0.96899,0.32031;
18:13:23.063,0.50122,0.94434,0.31104;
18:13:23.073,0.54883,0.92603,0.33862;
18:13:23.083,0.59448,0.91382,0.41455;
18:13:23.093,0.61938,0.95215,0.49780;
18:13:23.103,0.63940,1.04297,0.61475;
18:13:23.113,0.71606,0.81348,0.61255;
18:13:23.123,0.80127,0.84985,0.37939;
18:13:23.133,0.76440,1.31152,0.29346;
18:13:23.143,0.68481,1.68970,0.20483;
18:13:23.153,0.58374,1.70679,-0.21606;
18:13:23.163,0.78760,0.76563,0.12012;
18:13:23.173,0.80200,0.63477,0.42822;
18:13:23.183,0.69604,0.82227,0.46460;
18:13:23.193,0.53516,0.87646,0.46973;
18:13:23.203,0.50610,0.86230,0.49561;
18:13:23.213,0.51440,0.80298,0.49243;
18:13:23.223,0.50244,0.79810,0.47241;
18:13:23.233,0.46777,0.80957,0.44751;
18:13:23.243,0.46289,0.80225,0.45142;
18:13:23.253,0.46777,0.77759,0.51685;
18:13:23.263,0.45776,0.76807,0.61987;
18:13:23.273,0.43701,0.74707,0.76294;
18:13:23.283,0.46411,0.76050,0.75024;
18:13:23.293,0.48047,0.70410,0.67163;
18:13:23.303,0.46680,0.71802,0.64990;
18:13:23.313,0.46436,0.72925,0.64600;
18:13:23.323,0.46802,0.71704,0.67603;
18:13:23.333,0.46411,0.70508,0.72388;
18:13:23.343,0.45972,0.70435,0.74414;
18:13:23.353,0.45215,0.71533,0.73267;
18:13:23.363,0.44922,0.71484,0.70435;
18:13:23.373,0.45166,0.70483,0.67749;
18:13:23.383,0.45020,0.70435,0.66577;
18:13:23.393,0.44727,0.70068,0.65796;
18:13:23.403,0.44775,0.69604,0.65112;
18:13:23.413,0.45142,0.70386,0.63672;
18:13:23.423,0.45410,0.71240,0.62134;
18:13:23.433,0.46045,0.70190,0.63062;
18:13:23.443,0.47461,0.68896,0.63623;
18:13:23.453,0.47949,0.69727,0.62012;
18:13:23.463,0.47266,0.70776,0.60840;
18:13:23.473,0.47705,0.69800,0.59131;
18:13:23.483,0.48560,0.69360,0.56396;
18:13:23.493,0.48608,0.69360,0.54272;
18:13:23.503,0.48511,0.69458,0.52295;
18:13:23.513,0.48511,0.70361,0.51929;
18:13:23.523,0.48682,0.70483,0.52295;
18:13:23.533,0.48267,0.71021,0.52954;
18:13:23.543,0.47754,0.71411,0.54053;
18:13:23.553,0.47266,0.72437,0.54126;
18:13:23.563,0.46729,0.73267,0.53223;
18:13:23.573,0.46313,0.76978,0.47705;
18:13:23.583,0.45996,0.75879,0.45801;
18:13:23.593,0.45679,0.76733,0.46387;
18:13:23.603,0.45752,0.77441,0.46997;
18:13:23.613,0.46045,0.76709,0.47363;
18:13:23.623,0.46045,0.75342,0.47632;
18:13:23.633,0.45947,0.75537,0.47876;
18:13:23.643,0.46118,0.76489,0.47437;
18:13:23.653,0.46094,0.76245,0.47559;
18:13:23.663,0.46362,0.76807,0.48096;
18:13:23.673,0.47241,0.77832,0.47607;
18:13:23.683,0.47803,0.77808,0.47070;
18:13:23.693,0.47949,0.78638,0.45996;
18:13:23.703,0.48438,0.80176,0.44702;
18:13:23.713,0.48682,0.81665,0.44312;
18:13:23.723,0.48242,0.83325,0.43848;
18:13:23.733,0.48267,0.84424,0.42212;
18:13:23.743,0.48560,0.86133,0.39575;
18:13:23.753,0.48120,0.88794,0.36841;
18:13:23.763,0.47900,0.89282,0.35498;
18:13:23.773,0.47607,0.88110,0.36450;
18:13:23.783,0.47021,0.88379,0.37231;
18:13:23.793,0.46997,0.88696,0.38135;
18:13:23.803,0.47241,0.89648,0.39185;
18:13:23.813,0.48877,0.95313,0.33667;
18:13:23.823,0.51050,1.02026,0.25024;
18:13:23.833,0.53296,1.04419,0.18433;
18:13:23.843,0.54468,1.04150,0.13501;
18:13:23.853,0.54688,1.05005,0.09839;
18:13:23.863,0.55249,1.04810,0.06372;
18:13:23.873,0.56177,1.04053,0.07959;
18:13:23.883,0.53711,1.11938,0.06494;
18:13:23.893,0.55493,1.20337,0.04932;
18:13:23.903,0.57715,1.19238,0.05151;
18:13:23.913,0.58423,1.13013,0.09790;
18:13:23.923,0.59595,1.07935,0.14551;
18:13:23.933,0.58081,1.06982,0.18848;
18:13:23.943,0.57446,1.10962,0.21704;
18:13:23.953,0.58398,1.11890,0.30371;
18:13:23.963,0.56714,1.06738,0.45752;
18:13:23.973,0.56958,1.00122,0.60449;
18:13:23.983,0.56982,0.96655,0.74878;
18:13:23.993,0.59985,0.98779,0.84692;
18:13:24.003,0.64429,1.00854,0.86450;
18:13:24.013,0.63208,0.97192,0.86060;
18:13:24.023,0.62842,0.90308,0.85718;
18:13:24.033,0.60254,0.80542,0.80420;
18:13:24.043,0.56226,0.71582,0.75146;
18:13:24.053,0.52759,0.63672,0.70190;
18:13:24.063,0.46484,0.55054,0.61035;
18:13:24.073,0.43359,0.47729,0.55298;
18:13:24.083,0.31567,0.40552,0.40039;
18:13:24.093,0.16260,0.41846,0.04980;
18:13:24.103,0.71704,0.36353,0.11011;
18:13:24.113,1.10303,0.17285,0.63599;
18:13:24.123,0.34399,0.75659,0.75537;
18:13:24.133,0.44922,0.80322,0.83569;
18:13:24.143,0.33008,0.67920,0.84692;
18:13:24.153,0.28076,0.65454,0.74536;
18:13:24.163,0.32056,0.93848,0.46631;
18:13:24.173,0.24048,0.50073,-0.01660;
18:13:24.183,0.24756,0.48291,-0.30396;
18:13:24.193,0.17236,0.33789,-0.48633;
18:13:24.203,0.27441,0.05835,-0.33643;
18:13:24.213,0.42578,0.03198,-0.12671;
18:13:24.223,0.40430,0.35938,0.02637;
18:13:24.233,0.40063,0.81567,0.07007;
18:13:24.243,0.43677,1.07349,0.12305;
18:13:24.253,0.45386,1.13452,0.15894;
18:13:24.263,0.49585,1.05127,0.21704;
18:13:24.273,0.49927,1.02710,0.21729;
18:13:24.283,0.50024,1.01294,0.12744;
18:13:24.293,0.49976,0.97998,0.10352;
18:13:24.303,0.49146,0.97583,0.07910;
18:13:24.313,0.49219,0.98755,0.03906;
18:13:24.323,0.51050,1.00732,0.00513;
18:13:24.333,0.51343,1.03442,-0.00171;
18:13:24.343,0.50049,1.03467,0.00391;
18:13:24.353,0.49609,1.01733,0.00635;
18:13:24.363,0.48950,1.00854,0.02661;
18:13:24.373,0.48193,1.00562,0.03833;
18:13:24.383,0.47656,0.99707,0.04663;
18:13:24.393,0.47363,0.97900,0.06641;
18:13:24.403,0.46509,0.97021,0.08203;
18:13:24.413,0.45532,0.96069,0.09692;
18:13:24.423,0.44067,0.94897,0.10840;
18:13:24.433,0.42188,0.93457,0.11597;
18:13:24.443,0.41089,0.92358,0.12012;
18:13:24.453,0.40405,0.90210,0.11035;
18:13:24.463,0.39868,0.90698,0.11475;
18:13:24.473,0.40210,0.91553,0.11011;
18:13:24.483,0.41089,0.91504,0.10791;
18:13:24.493,0.40967,0.91724,0.10913;
18:13:24.503,0.40747,0.91675,0.10474;
18:13:24.513,0.41162,0.91479,0.09839;
18:13:24.523,0.40869,0.91748,0.09692;
18:13:24.533,0.40869,0.91577,0.09253;
18:13:24.543,0.41602,0.91650,0.08643;
18:13:24.553,0.41748,0.91870,0.08667;
18:13:24.563,0.42188,0.92334,0.08936;
18:13:24.573,0.42725,0.92114,0.08667;
18:13:24.583,0.42993,0.91724,0.08691;
18:13:24.593,0.44019,0.91528,0.07983;
18:13:24.603,0.44507,0.90820,0.07300;
18:13:24.613,0.44751,0.90723,0.07349;
18:13:24.623,0.44263,0.90112,0.07251;
18:13:24.633,0.43823,0.90332,0.06885;
18:13:24.643,0.44067,0.90479,0.07031;
18:13:24.653,0.43823,0.90088,0.07153;
18:13:24.663,0.44312,0.90332,0.07227;
18:13:24.673,0.44824,0.91064,0.06665;
18:13:24.683,0.45166,0.90991,0.06567;
18:13:24.693,0.44922,0.90259,0.06982;
18:13:24.703,0.44604,0.89990,0.07153;
18:13:24.713,0.44336,0.89722,0.06836;
18:13:24.723,0.44238,0.88647,0.06812;
18:13:24.733,0.44604,0.88257,0.06934;
18:13:24.743,0.44507,0.88062,0.07056;
18:13:24.753,0.44141,0.88696,0.07275;
18:13:24.763,0.44800,0.89185,0.07153;
18:13:24.773,0.44556,0.89917,0.06958;
18:13:24.783,0.44849,0.90576,0.06421;
18:13:24.793,0.45483,0.90845,0.05811;
18:13:24.803,0.45361,0.90454,0.05176;
18:13:24.813,0.45264,0.90503,0.04834;
18:13:24.823,0.45874,0.90649,0.05200;
18:13:24.833,0.46118,0.90894,0.05762;
18:13:24.843,0.46802,0.92041,0.05859;
18:13:24.853,0.47388,0.92432,0.05811;
18:13:24.863,0.47290,0.92334,0.06006;
18:13:24.873,0.47559,0.92139,0.06250;
18:13:24.883,0.47729,0.91919,0.06226;
18:13:24.893,0.47241,0.90967,0.05933;
18:13:24.903,0.46851,0.90308,0.06055;
18:13:24.913,0.47070,0.89673,0.06030;
18:13:24.923,0.46948,0.88403,0.06299;
18:13:24.933,0.47314,0.87671,0.05859;
18:13:24.943,0.47412,0.86987,0.05786;
18:13:24.953,0.46655,0.85913,0.06055;
18:13:24.963,0.45947,0.85767,0.05884;
18:13:24.973,0.45776,0.86084,0.06812;
18:13:24.983,0.45361,0.86499,0.07690;
18:13:24.993,0.45264,0.86938,0.07959;
18:13:25.003,0.44922,0.86743,0.08813;
18:13:25.013,0.43701,0.87231,0.09351;
18:13:25.023,0.42798,0.87817,0.09985;
18:13:25.033,0.41919,0.88818,0.10376;
18:13:25.043,0.41528,0.89575,0.10449;
18:13:25.053,0.40894,0.90454,0.11230;
18:13:25.063,0.39648,0.95532,0.11035;
18:13:25.073,0.38672,0.95459,0.10693;
18:13:25.083,0.38770,0.96045,0.10742;
18:13:25.093,0.38232,0.97144,0.11572;
18:13:25.103,0.36987,0.97778,0.13037;
18:13:25.113,0.35547,0.97632,0.14893;
18:13:25.123,0.33643,0.98047,0.17236;
18:13:25.133,0.31885,0.99658,0.20605;
18:13:25.143,0.30493,1.00977,0.23682;
18:13:25.153,0.28613,1.01196,0.26440;
18:13:25.163,0.27002,1.01587,0.29663;
18:13:25.173,0.24902,1.01245,0.32129;
18:13:25.183,0.21826,0.99829,0.34790;
18:13:25.193,0.20166,0.99463,0.37646;
18:13:25.203,0.19678,0.99780,0.39941;
18:13:25.213,0.19531,0.99683,0.42114;
18:13:25.223,0.19800,1.00073,0.44336;
18:13:25.233,0.20239,1.00562,0.45923;
18:13:25.243,0.20996,1.00830,0.46899;
18:13:25.253,0.21924,1.00903,0.47559;
18:13:25.263,0.22803,1.01025,0.46704;
18:13:25.273,0.24414,1.00830,0.44727;
18:13:25.283,0.26001,1.01172,0.42139;
18:13:25.293,0.26929,1.03516,0.39526;
18:13:25.303,0.28003,1.05762,0.37451;
18:13:25.313,0.28442,1.09717,0.34692;
18:13:25.323,0.29492,1.11963,0.32397;
18:13:25.333,0.30371,1.11963,0.31567;
18:13:25.343,0.29053,1.12329,0.31592;
18:13:25.353,0.27734,1.11841,0.37842;
18:13:25.363,0.22217,1.08130,0.46802;
18:13:25.373,0.19019,1.06714,0.53223;
18:13:25.383,0.17944,1.05737,0.56055;
18:13:25.393,0.16113,1.04321,0.57324;
18:13:25.403,0.15308,1.02148,0.55981;
18:13:25.413,0.16089,0.99805,0.55322;
18:13:25.423,0.18066,0.98169,0.55493;
18:13:25.433,0.20166,0.96411,0.53906;
18:13:25.443,0.23291,0.94458,0.51514;
18:13:25.453,0.27173,0.93994,0.48853;
18:13:25.463,0.32690,0.95532,0.52393;
18:13:25.473,0.33716,0.93750,0.53662;
18:13:25.483,0.35718,0.92212,0.54980;
18:13:25.493,0.38232,0.90259,0.56519;
18:13:25.503,0.39478,0.89282,0.56982;
18:13:25.513,0.40698,0.89551,0.56616;
18:13:25.523,0.42456,0.89966,0.54663;
18:13:25.533,0.44141,0.90698,0.52051;
18:13:25.543,0.44604,0.92554,0.48901;
18:13:25.553,0.44507,0.94653,0.45996;
18:13:25.563,0.44482,0.96509,0.43384;
18:13:25.573,0.44043,0.97656,0.42163;
18:13:25.583,0.39697,0.97266,0.44775;
18:13:25.593,0.36060,0.94263,0.48804;
18:13:25.603,0.33936,0.92407,0.51953;
18:13:25.613,0.32007,0.90503,0.55713;
18:13:25.623,0.29834,0.89478,0.58936;
18:13:25.633,0.27808,0.88647,0.62061;
18:13:25.643,0.26855,0.87085,0.65039;
18:13:25.653,0.25928,0.85400,0.67627;
18:13:25.663,0.24634,0.84619,0.69604;
18:13:25.673,0.24707,0.83911,0.70264;
18:13:25.683,0.25293,0.83350,0.70874;
18:13:25.693,0.25586,0.82568,0.72217;
18:13:25.703,0.26074,0.81445,0.73193;
18:13:25.713,0.26587,0.79712,0.74463;
18:13:25.723,0.26880,0.79468,0.75391;
18:13:25.733,0.27515,0.80566,0.76099;
18:13:25.743,0.28931,0.81226,0.76831;
18:13:25.753,0.31055,0.82300,0.77490;
18:13:25.763,0.33618,0.83203,0.78320;
18:13:25.773,0.36523,0.83325,0.79907;
18:13:25.783,0.39209,0.81909,0.81006;
18:13:25.793,0.41992,0.80908,0.82031;
18:13:25.803,0.44800,0.79858,0.82983;
18:13:25.813,0.47119,0.77783,0.83691;
18:13:25.823,0.49390,0.74927,0.84619;
18:13:25.833,0.50903,0.72754,0.84326;
18:13:25.843,0.52954,0.71411,0.83521;
18:13:25.853,0.55859,0.69653,0.83423;
18:13:25.863,0.59131,0.69971,0.83545;
18:13:25.873,0.63037,0.70581,0.83594;
18:13:25.883,0.74902,0.72778,0.83398;
18:13:25.893,0.76001,0.74512,0.87866;
18:13:25.903,0.75220,0.74951,0.91187;
18:13:25.913,0.74731,0.75317,0.93555;
18:13:25.923,0.74438,0.75586,0.95898;
18:13:25.933,0.73535,0.77344,0.98242;
18:13:25.943,0.72412,0.80542,0.99048;
18:13:25.953,0.71436,0.83521,0.98340;
18:13:25.963,0.70605,0.86304,0.96509;
18:13:25.973,0.69995,0.89307,0.92578;
18:13:25.983,0.68848,0.90796,0.87134;
18:13:25.993,0.66577,0.90527,0.81641;
18:13:26.003,0.65015,0.89722,0.76489;
18:13:26.013,0.63257,0.86719,0.74609;
18:13:26.023,0.47485,0.90967,0.81006;
18:13:26.033,0.43555,0.93506,0.81641;
18:13:26.043,0.40454,0.95508,0.82275;
18:13:26.053,0.38599,0.94360,0.82080;
18:13:26.063,0.37354,0.93091,0.81616;
18:13:26.073,0.37427,0.93604,0.81909;
18:13:26.083,0.38354,0.93945,0.82617;
18:13:26.093,0.39307,0.95435,0.83081;
18:13:26.103,0.40649,0.97070,0.82446;
18:13:26.113,0.42920,0.98071,0.79980;
18:13:26.123,0.46094,0.99146,0.75635;
18:13:26.133,0.48682,0.98853,0.70483;
18:13:26.143,0.52466,1.00757,0.59131;
18:13:26.153,0.54175,1.00513,0.58765;
18:13:26.163,0.53711,0.98242,0.60181;
18:13:26.173,0.51563,0.94092,0.61450;
18:13:26.183,0.49585,0.89722,0.62866;
18:13:26.193,0.46997,0.86206,0.64648;
18:13:26.203,0.45068,0.84204,0.66040;
18:13:26.213,0.43799,0.80762,0.69312;
18:13:26.223,0.42847,0.77515,0.73877;
18:13:26.233,0.42358,0.73901,0.78589;
18:13:26.243,0.41699,0.69702,0.82935;
18:13:26.253,0.40161,0.66724,0.85303;
18:13:26.263,0.37891,0.65503,0.84204;
18:13:26.273,0.35986,0.66553,0.81104;
18:13:26.283,0.35645,0.67798,0.78198;
18:13:26.293,0.34668,0.71948,0.74512;
18:13:26.303,0.34473,0.78271,0.67407;
18:13:26.313,0.34326,0.84937,0.58936;
18:13:26.323,0.35181,0.92310,0.52808;
18:13:26.333,0.36914,0.98901,0.48828;
18:13:26.343,0.37891,1.03687,0.47046;
18:13:26.353,0.40723,1.06494,0.46631;
18:13:26.363,0.45801,1.07568,0.47876;
18:13:26.373,0.50952,1.07275,0.50293;
18:13:26.383,0.54614,1.08740,0.52954;
18:13:26.393,0.56812,1.09985,0.55933;
18:13:26.403,0.57324,1.09863,0.57861;
18:13:26.413,0.57007,1.09009,0.57104;
18:13:26.423,0.56567,1.06714,0.54053;
18:13:26.433,0.55908,1.05493,0.49072;
18:13:26.443,0.54810,1.04272,0.37427;
18:13:26.453,0.51611,0.94971,0.33472;
18:13:26.463,0.48608,0.90454,0.37451;
18:13:26.473,0.46680,0.88257,0.40601;
18:13:26.483,0.44800,0.84814,0.44556;
18:13:26.493,0.42358,0.83545,0.47070;
18:13:26.503,0.39697,0.81958,0.48828;
18:13:26.513,0.37720,0.79785,0.50269;
18:13:26.523,0.35059,0.78223,0.51270;
18:13:26.533,0.33032,0.76831,0.52490;
18:13:26.543,0.31445,0.74438,0.53418;
18:13:26.553,0.29956,0.71997,0.54614;
18:13:26.563,0.29272,0.71191,0.55933;
18:13:26.573,0.29028,0.70483,0.57104;
18:13:26.583,0.29980,0.71021,0.57007;
18:13:26.593,0.31348,0.71606,0.55908;
18:13:26.603,0.32739,0.71582,0.55396;
18:13:26.613,0.33789,0.72510,0.54346;
18:13:26.623,0.34570,0.74658,0.52612;
18:13:26.633,0.35278,0.77026,0.51294;
18:13:26.643,0.35913,0.78125,0.50952;
18:13:26.653,0.36182,0.78735,0.50952;
18:13:26.663,0.37158,0.80273,0.51953;
18:13:26.673,0.38745,0.81787,0.54565;
18:13:26.683,0.40161,0.82373,0.57715;
18:13:26.693,0.41772,0.82837,0.61353;
18:13:26.703,0.43750,0.82300,0.65332;
18:13:26.713,0.45703,0.81445,0.69336;
18:13:26.723,0.47241,0.80640,0.71167;
18:13:26.733,0.49463,0.80542,0.70044;
18:13:26.743,0.51587,0.81519,0.66187;
18:13:26.753,0.63599,0.84839,0.57935;
18:13:26.763,0.68604,0.89453,0.57495;
18:13:26.773,0.69775,0.92676,0.59009;
18:13:26.783,0.69946,0.95728,0.61060;
18:13:26.793,0.68921,0.98242,0.62793;
18:13:26.803,0.67285,1.00269,0.64331;
18:13:26.813,0.66724,1.01123,0.66626;
18:13:26.823,0.66089,1.00732,0.68823;
18:13:26.833,0.64746,0.98804,0.72388;
18:13:26.843,0.62378,0.94873,0.73511;
18:13:26.853,0.59277,0.90552,0.72632;
18:13:26.863,0.57593,0.88062,0.70435;
18:13:26.873,0.56421,0.86572,0.66748;
18:13:26.883,0.55005,0.85767,0.63965;
18:13:26.893,0.54346,0.86035,0.61816;
18:13:26.903,0.52881,0.87744,0.60474;
18:13:26.913,0.51416,0.89478,0.60474;
18:13:26.923,0.50586,0.90503,0.61816;
18:13:26.933,0.48901,0.91357,0.63794;
18:13:26.943,0.45898,0.92236,0.65234;
18:13:26.953,0.42261,0.92065,0.65552;
18:13:26.963,0.39160,0.91284,0.65991;
18:13:26.973,0.36011,0.90747,0.66309;
18:13:26.983,0.33008,0.90601,0.66748;
18:13:26.993,0.31543,0.90259,0.67554;
18:13:27.003,0.31470,0.90649,0.68872;
18:13:27.013,0.31812,0.91455,0.69849;
18:13:27.023,0.32349,0.92017,0.70776;
18:13:27.033,0.33154,0.92603,0.71411;
18:13:27.043,0.34082,0.93530,0.70557;
18:13:27.053,0.39844,0.98560,0.62085;
18:13:27.063,0.47241,1.02344,0.54053;
18:13:27.073,0.49072,1.02148,0.52563;
18:13:27.083,0.49780,1.01147,0.51660;
18:13:27.093,0.49829,0.99756,0.51807;
18:13:27.103,0.50146,0.97534,0.53271;
18:13:27.113,0.49609,0.93359,0.54956;
18:13:27.123,0.47778,0.88989,0.57080;
18:13:27.133,0.45142,0.84985,0.59961;
18:13:27.143,0.41797,0.81348,0.62109;
18:13:27.153,0.39014,0.78467,0.64014;
18:13:27.163,0.36206,0.75757,0.65820;
18:13:27.173,0.32373,0.72681,0.66821;
18:13:27.183,0.29395,0.71387,0.66187;
18:13:27.193,0.27930,0.70850,0.64429;
18:13:27.203,0.26685,0.69873,0.62427;
18:13:27.213,0.25806,0.70117,0.60962;
18:13:27.223,0.25586,0.70874,0.60791;
18:13:27.233,0.24097,0.73730,0.60596;
18:13:27.243,0.23853,0.77466,0.60620;
18:13:27.253,0.26270,0.80835,0.62891;
18:13:27.263,0.27197,0.83105,0.66382;
18:13:27.273,0.26831,0.85449,0.67505;
18:13:27.283,0.27100,0.88135,0.62012;
18:13:27.293,0.30054,0.90625,0.51831;
18:13:27.303,0.33887,0.94922,0.41455;
18:13:27.313,0.35474,1.00122,0.31787;
18:13:27.323,0.37061,1.05347,0.27026;
18:13:27.333,0.38574,1.11035,0.26318;
18:13:27.343,0.39624,1.16797,0.27441;
18:13:27.353,0.47510,1.16724,0.35303;
18:13:27.363,0.52148,1.08594,0.31787;
18:13:27.373,0.52295,1.05200,0.26611;
18:13:27.383,0.51904,1.02148,0.21313;
18:13:27.393,0.51001,0.98511,0.17163;
18:13:27.403,0.49976,0.94507,0.14868;
18:13:27.413,0.49341,0.90918,0.14771;
18:13:27.423,0.48071,0.88525,0.16113;
18:13:27.433,0.46802,0.86841,0.18750;
18:13:27.443,0.44849,0.86255,0.21436;
18:13:27.453,0.41724,0.85059,0.24121;
18:13:27.463,0.39136,0.83887,0.26904;
18:13:27.473,0.36279,0.84009,0.29517;
18:13:27.483,0.32935,0.82910,0.32129;
18:13:27.493,0.29541,0.81104,0.35156;
18:13:27.503,0.26758,0.79736,0.38379;
18:13:27.513,0.24512,0.78174,0.40991;
18:13:27.523,0.22119,0.77661,0.44165;
18:13:27.533,0.20996,0.77954,0.46484;
18:13:27.543,0.20728,0.77954,0.47656;
18:13:27.553,0.20654,0.77905,0.48389;
18:13:27.563,0.20801,0.78027,0.48120;
18:13:27.573,0.21924,0.78271,0.47925;
18:13:27.583,0.23462,0.78979,0.47461;
18:13:27.593,0.25171,0.80664,0.46704;
18:13:27.603,0.26343,0.81689,0.47046;
18:13:27.613,0.27222,0.82178,0.47388;
18:13:27.623,0.28174,0.82764,0.47876;
18:13:27.633,0.28833,0.83350,0.48218;
18:13:27.643,0.29321,0.83838,0.51147;
18:13:27.653,0.31665,0.85400,0.57471;
18:13:27.663,0.33374,0.87061,0.64404;
18:13:27.673,0.37427,0.87573,0.66724;
18:13:27.683,0.42212,0.90259,0.66626;
18:13:27.693,0.46021,0.91870,0.63794;
18:13:27.703,0.50806,0.92578,0.61646;
18:13:27.713,0.55542,0.95630,0.61206;
18:13:27.723,0.59619,0.99023,0.63794;
18:13:27.733,0.63184,1.02051,0.68823;
18:13:27.743,0.64673,1.05444,0.74292;
18:13:27.753,0.64673,1.05811,0.77515;
18:13:27.763,0.63916,1.04468,0.79297;
18:13:27.773,0.62109,1.04053,0.79199;
18:13:27.783,0.59521,1.01147,0.79028;
18:13:27.793,0.56812,0.97632,0.81177;
18:13:27.803,0.54370,0.97070,0.83179;
18:13:27.813,0.52417,0.96460,0.84717;
18:13:27.823,0.51099,0.94067,0.85864;
18:13:27.833,0.50439,0.91504,0.85889;
18:13:27.843,0.50415,0.88892,0.84351;
18:13:27.853,0.50049,0.83765,0.80835;
18:13:27.863,0.49316,0.78906,0.76123;
18:13:27.873,0.48755,0.77686,0.70117;
18:13:27.883,0.47803,0.77051,0.63525;
18:13:27.893,0.46118,0.77490,0.58887;
18:13:27.903,0.43701,0.79004,0.56519;
18:13:27.913,0.41089,0.81519,0.55493;
18:13:27.923,0.39551,0.84399,0.56470;
18:13:27.933,0.38062,0.86694,0.58179;
18:13:27.943,0.36450,0.88184,0.59985;
18:13:27.953,0.34033,0.88062,0.66309;
18:13:27.963,0.35400,0.85254,0.66870;
18:13:27.973,0.36572,0.83374,0.64795;
18:13:27.983,0.38184,0.83887,0.61987;
18:13:27.993,0.39746,0.85864,0.58203;
18:13:28.003,0.40967,0.86084,0.54004;
18:13:28.013,0.42505,0.83521,0.50537;
18:13:28.023,0.43823,0.79102,0.48682;
18:13:28.033,0.44580,0.76538,0.47290;
18:13:28.043,0.45020,0.72876,0.47217;
18:13:28.053,0.45020,0.67065,0.47632;
18:13:28.063,0.45825,0.62671,0.47583;
18:13:28.073,0.46460,0.59204,0.47925;
18:13:28.083,0.47314,0.57617,0.48022;
18:13:28.093,0.48511,0.54541,0.49243;
18:13:28.103,0.50366,0.49390,0.50366;
18:13:28.113,0.53198,0.46826,0.50928;
18:13:28.123,0.56592,0.42798,0.50537;
18:13:28.133,0.58276,0.46899,0.52979;
18:13:28.143,0.60010,0.54272,0.53467;
18:13:28.153,0.62573,0.54614,0.49072;
18:13:28.163,0.64038,0.52344,0.44922;
18:13:28.173,0.65552,0.51099,0.41821;
18:13:28.183,0.69458,0.51660,0.38184;
18:13:28.193,0.73950,0.50391,0.34058;
18:13:28.203,0.76001,0.51929,0.31860;
18:13:28.213,0.78003,0.48486,0.32104;
18:13:28.223,0.82690,0.43774,0.35156;
18:13:28.233,0.87378,0.49194,0.36450;
18:13:28.243,0.90283,0.69409,0.35938;
18:13:28.253,0.82031,0.95605,0.27930;
18:13:28.263,0.85254,0.79419,0.27441;
18:13:28.273,0.85010,0.78613,0.27271;
18:13:28.283,0.87695,0.74072,0.27808;
18:13:28.293,0.90527,0.71997,0.29663;
18:13:28.303,0.93481,0.78223,0.31079;
18:13:28.313,0.94458,0.84375,0.34863;
18:13:28.323,0.94507,0.88086,0.37183;
18:13:28.333,0.93970,0.88330,0.37915;
18:13:28.343,0.92480,0.84106,0.37769;
18:13:28.353,0.90869,0.78149,0.35620;
18:13:28.363,0.89868,0.69434,0.33984;
18:13:28.373,0.95410,0.59937,0.34106;
18:13:28.383,1.03882,0.61060,0.33740;
18:13:28.393,1.02124,0.66553,0.29785;
18:13:28.403,0.99878,0.61182,0.29224;
18:13:28.413,0.99048,0.53711,0.30127;
18:13:28.423,0.92920,0.52710,0.27222;
18:13:28.433,0.86230,0.52490,0.24536;
18:13:28.443,0.79272,0.48071,0.23682;
18:13:28.453,0.81396,0.44434,0.25977;
18:13:28.463,0.91650,0.46460,0.27173;
18:13:28.473,0.92432,0.50049,0.27539;
18:13:28.483,0.89624,0.51807,0.28345;
18:13:28.493,0.89307,0.52490,0.26538;
18:13:28.503,0.84131,0.50879,0.23853;
18:13:28.513,0.79443,0.46582,0.23926;
18:13:28.523,0.79419,0.39209,0.25537;
18:13:28.533,0.91919,0.38062,0.28369;
18:13:28.543,1.05444,0.42334,0.27197;
18:13:28.553,1.01611,0.38574,0.30762;
18:13:28.563,0.98853,0.43848,0.38794;
18:13:28.573,1.02173,0.50000,0.40796;
18:13:28.583,1.07373,0.51758,0.40161;
18:13:28.593,1.08081,0.53809,0.36572;
18:13:28.603,1.06006,0.52881,0.35938;
18:13:28.613,1.05249,0.55518,0.38916;
18:13:28.623,1.07422,0.63647,0.44141;
18:13:28.633,1.09473,0.72876,0.49878;
18:13:28.643,1.12671,0.85376,0.49243;
18:13:28.653,1.12500,0.95996,0.48071;
18:13:28.663,1.09253,0.98169,0.51685;
18:13:28.673,1.07227,0.95581,0.59326;
18:13:28.683,1.04932,0.94604,0.65332;
18:13:28.693,1.05347,0.99023,0.59033;
18:13:28.703,1.10400,1.03760,0.44409;
18:13:28.713,1.17700,1.08179,0.25684;
18:13:28.723,1.24146,1.11621,0.16187;
18:13:28.733,1.23047,1.09229,0.04199;
18:13:28.743,1.15747,1.10107,-0.04834;
18:13:28.753,1.15186,1.24634,-0.02588;
18:13:28.763,1.11914,1.36694,0.08057;
18:13:28.773,1.02930,1.47021,0.23877;
18:13:28.783,0.96045,1.48511,0.31885;
18:13:28.793,0.93872,1.33911,0.37231;
18:13:28.803,0.90967,1.38257,0.38599;
18:13:28.813,0.87109,1.53589,0.35327;
18:13:28.823,0.80957,1.55371,0.31763;
18:13:28.833,0.70435,1.48486,0.33984;
18:13:28.843,0.63599,1.34790,0.32764;
18:13:28.853,0.48071,1.05347,0.19458;
18:13:28.863,0.32324,0.65845,0.11987;
18:13:28.873,0.26318,0.47070,0.04272;
18:13:28.883,0.18335,0.37744,0.07275;
18:13:28.893,0.13892,0.25439,0.14795;
18:13:28.903,0.11157,0.18579,0.19141;
18:13:28.913,0.03320,0.17310,0.30005;
18:13:28.923,0.00146,-0.00024,0.36914;
18:13:28.933,-0.00635,-0.17114,0.37842;
18:13:28.943,0.01782,-0.25415,0.28101;
18:13:28.953,0.09058,-0.37720,0.20313;
18:13:28.963,0.05054,-0.54614,0.27856;
18:13:28.973,-0.02197,-0.61255,0.47998;
18:13:28.983,-0.05859,-0.67798,0.62305;
18:13:28.993,-0.02734,-0.81250,0.65649;
18:13:29.003,0.02075,-0.96704,0.71460;
18:13:29.013,0.02563,-1.02417,0.84058;
18:13:29.023,0.05688,-0.85962,0.97144;
18:13:29.033,0.12915,-0.86914,0.98608;
18:13:29.043,0.16992,-0.93115,1.06323;
18:13:29.053,0.21851,-0.99561,1.09741;
18:13:29.063,0.30786,-0.93921,0.95313;
18:13:29.073,0.47046,-0.70313,0.53638;
18:13:29.083,0.73071,-0.17505,-0.32593;
18:13:29.093,0.87915,0.29834,-1.15039;
18:13:29.103,0.85547,0.45923,-1.72998;
18:13:29.113,0.83691,0.55176,-2.32788;
18:13:29.123,0.77271,0.72021,-2.79443;
18:13:29.133,0.82715,0.82178,-2.83325;
18:13:29.143,1.25073,-0.09180,-1.64038;
18:13:29.153,1.63647,-0.55469,0.44824;
18:13:29.163,2.35986,-0.31738,0.65430;
18:13:29.173,3.20923,0.99390,0.26489;
18:13:29.183,3.55884,1.92822,-0.27075;
18:13:29.193,2.96143,1.86890,-0.48901;
18:13:29.203,2.12427,1.73364,-0.48584;
18:13:29.213,1.80737,1.80469,-0.40088;
18:13:29.223,1.52246,1.57813,-0.42188;
18:13:29.233,1.33936,1.25195,-0.54663;
18:13:29.243,1.33374,0.98340,-0.55347;
18:13:29.253,1.36255,0.68188,-0.46704;
18:13:29.263,1.32715,0.51660,-0.37158;
18:13:29.273,1.22266,0.51392,-0.27979;
18:13:29.283,1.10645,0.54590,-0.26538;
18:13:29.293,1.04883,0.64795,-0.29150;
18:13:29.303,1.05371,0.79785,-0.30469;
18:13:29.313,1.03979,0.97095,-0.27612;
18:13:29.323,1.02319,1.02295,-0.17993;
18:13:29.333,1.06152,0.98145,-0.04614;
18:13:29.343,1.12646,0.92627,0.05591;
18:13:29.353,1.12402,0.90356,0.10205;
18:13:29.363,1.06177,0.91748,0.19629;
18:13:29.373,0.98950,0.93750,0.34985;
18:13:29.383,0.96484,0.96558,0.43408;
18:13:29.393,0.94165,0.99316,0.55371;
18:13:29.403,0.97339,1.13428,0.72852;
18:13:29.413,0.97827,0.78491,1.14111;
18:13:29.423,1.88452,2.27930,-1.20020;
18:13:29.433,1.88940,2.12817,-0.68921;
18:13:29.443,-0.16943,-0.04126,1.25073;
18:13:29.453,-0.19312,-0.28052,0.98877;
18:13:29.463,-0.15771,-0.00317,0.85645;
18:13:29.473,-0.07227,0.12305,0.77319;
18:13:29.483,0.00562,0.18140,0.59277;
18:13:29.493,0.02612,0.23584,0.63672;
18:13:29.503,0.00146,0.41235,0.52319;
18:13:29.513,0.00513,0.87866,0.15137;
18:13:29.523,0.71753,0.59131,0.63818;
18:13:29.533,0.79541,0.78320,0.46631;
18:13:29.543,0.85156,0.78662,0.43628;
18:13:29.553,0.86157,0.81641,0.46509;
18:13:29.563,0.82764,0.76001,0.54541;
18:13:29.573,0.79688,0.68262,0.59058;
18:13:29.583,0.77563,0.66382,0.57568;
18:13:29.593,0.76782,0.69434,0.52979;
18:13:29.603,0.78003,0.76929,0.41455;
18:13:29.613,0.78394,0.73828,0.33862;
18:13:29.623,0.76709,0.63989,0.37280;
18:13:29.633,0.74634,0.61450,0.43335;
18:13:29.643,0.73022,0.60376,0.49072;
18:13:29.653,0.71753,0.58179,0.55103;
18:13:29.663,0.71167,0.61206,0.55322;
18:13:29.673,0.70898,0.65991,0.47705;
18:13:29.683,0.68481,0.60938,0.55396;
18:13:29.693,0.67505,0.60034,0.60767;
18:13:29.703,0.69165,0.58521,0.62598;
18:13:29.713,0.69629,0.58496,0.62329;
18:13:29.723,0.69263,0.59375,0.63330;
18:13:29.733,0.69824,0.60059,0.65186;
18:13:29.743,0.71094,0.61890,0.66577;
18:13:29.753,0.70361,0.64355,0.67529;
18:13:29.763,0.68286,0.60791,0.66479;
18:13:29.773,0.65869,0.58545,0.66089;
18:13:29.783,0.64478,0.63770,0.66724;
18:13:29.793,0.64819,0.68140,0.67114;
18:13:29.803,0.65576,0.72046,0.68262;
18:13:29.813,0.68262,0.78394,0.69482;
18:13:29.823,0.72998,0.84375,0.70947;
18:13:29.833,0.79077,0.77734,0.76758;
18:13:29.843,0.85693,0.66431,0.81445;
18:13:29.853,0.88477,0.64136,0.69116;
18:13:29.863,0.87476,0.52051,0.47632;
18:13:29.873,0.84619,0.32788,0.25317;
18:13:29.883,0.82349,0.20142,-0.06030;
18:13:29.893,0.75220,0.07739,-0.13501;
18:13:29.903,0.56104,-0.21436,0.10620;
18:13:29.913,0.33496,-0.44629,0.65601;
18:13:29.923,0.09546,-0.24512,1.12964;
18:13:29.933,-0.08179,0.87158,0.86548;
18:13:29.943,0.02197,0.37476,0.76880;
18:13:29.953,0.69092,1.81641,-0.46802;
18:13:29.963,0.64209,-0.36255,0.87183;
18:13:29.973,0.90063,0.03052,0.87817;
18:13:29.983,0.73828,1.13477,0.90308;
18:13:29.993,0.73950,0.83228,0.89746;
18:13:30.003,0.86621,0.52393,0.86279;
18:13:30.013,0.84229,0.69873,0.81567;
18:13:30.023,0.78638,0.72852,0.74268;
18:13:30.033,0.76147,0.67163,0.65356;
18:13:30.043,0.69800,0.64160,0.71948;
18:13:30.053,0.62964,0.62598,0.80396;
18:13:30.063,0.59619,0.61743,0.80298;
18:13:30.073,0.58496,0.58325,0.70923;
18:13:30.083,0.57959,0.53613,0.60938;
18:13:30.093,0.57373,0.52759,0.55151;
18:13:30.103,0.58179,0.57861,0.50610;
18:13:30.113,0.59351,0.60938,0.44189;
18:13:30.123,0.58618,0.57642,0.45264;
18:13:30.133,0.57080,0.53394,0.53247;
18:13:30.143,0.57007,0.57080,0.57520;
18:13:30.153,0.58789,0.57983,0.57642;
18:13:30.163,0.61890,0.53320,0.56274;
18:13:30.173,0.63208,0.52588,0.56250;
18:13:30.183,0.62915,0.54785,0.58301;
18:13:30.193,0.62744,0.54419,0.62695;
18:13:30.203,0.61377,0.55786,0.65161;
18:13:30.213,0.60425,0.56787,0.65894;
18:13:30.223,0.60400,0.55859,0.66235;
18:13:30.233,0.60181,0.55103,0.65601;
18:13:30.243,0.59619,0.56201,0.63110;
18:13:30.253,0.58569,0.54980,0.61401;
18:13:30.263,0.55981,0.56030,0.61133;
18:13:30.273,0.53418,0.56299,0.63770;
18:13:30.283,0.51904,0.55859,0.64209;
18:13:30.293,0.51465,0.53369,0.65234;
18:13:30.303,0.50610,0.53418,0.65332;
18:13:30.313,0.49707,0.56470,0.65332;
18:13:30.323,0.48706,0.57983,0.68237;
18:13:30.333,0.48022,0.57861,0.70703;
18:13:30.343,0.47437,0.60303,0.70288;
18:13:30.353,0.47852,0.60620,0.69653;
18:13:30.363,0.48633,0.58838,0.67700;
18:13:30.373,0.48584,0.63208,0.65479;
18:13:30.383,0.49023,0.66089,0.64233;
18:13:30.393,0.49634,0.65845,0.63623;
18:13:30.403,0.49756,0.68384,0.63354;
18:13:30.413,0.50195,0.69043,0.64893;
18:13:30.423,0.50415,0.66333,0.66553;
18:13:30.433,0.50562,0.64771,0.65479;
18:13:30.443,0.50635,0.66943,0.62646;
18:13:30.453,0.50952,0.70142,0.57886;
18:13:30.463,0.51196,0.71948,0.53955;
18:13:30.473,0.51221,0.71997,0.53638;
18:13:30.483,0.50562,0.74463,0.56323;
18:13:30.493,0.49707,0.75195,0.58105;
18:13:30.503,0.48169,0.73193,0.56714;
18:13:30.513,0.48804,0.74316,0.52637;
18:13:30.523,0.51318,0.77393,0.47241;
18:13:30.533,0.52515,0.78979,0.44751;
18:13:30.543,0.51294,0.82104,0.43188;
18:13:30.553,0.48535,0.82764,0.43726;
18:13:30.563,0.44019,0.85205,0.47778;
18:13:30.573,0.46118,0.90210,0.38525;
18:13:30.583,0.47437,0.89722,0.32837;
18:13:30.593,0.49194,0.91211,0.27661;
18:13:30.603,0.45557,0.95776,0.26587;
18:13:30.613,0.40771,0.97070,0.29346;
18:13:30.623,0.38062,0.94922,0.29834;
18:13:30.633,0.36743,0.96973,0.27393;
18:13:30.643,0.38184,1.01196,0.23242;
18:13:30.653,0.39063,1.06079,0.19678;
18:13:30.663,0.38818,1.07666,0.17725;
18:13:30.673,0.36963,1.08301,0.17603;
18:13:30.683,0.38135,1.17603,0.15405;
18:13:30.693,0.40381,1.26392,0.10254;
18:13:30.703,0.41699,1.24512,0.05640;
18:13:30.713,0.39258,1.15552,0.02808;
18:13:30.723,0.34961,1.16089,0.05103;
18:13:30.733,0.33911,1.22192,0.03955;
18:13:30.743,0.31689,1.25269,0.00635;
18:13:30.753,0.30469,1.26611,-0.02637;
18:13:30.763,0.28955,1.25903,-0.09863;
18:13:30.773,0.26636,1.25122,-0.15186;
18:13:30.783,0.25732,1.22437,-0.18726;
18:13:30.793,0.24634,1.19751,-0.22974;
18:13:30.803,0.20215,1.16187,-0.25342;
18:13:30.813,0.15820,1.11206,-0.28516;
18:13:30.823,0.14038,1.08179,-0.34766;
18:13:30.833,0.11401,1.05737,-0.37134;
18:13:30.843,0.11377,0.96167,-0.38110;
18:13:30.853,0.06372,0.83301,-0.39380;
18:13:30.863,-0.09204,0.64160,-0.50659;
18:13:30.873,-0.14014,0.60449,-0.56128;
18:13:30.883,-0.12061,0.53540,-0.61182;
18:13:30.893,-0.15576,0.42505,-0.67651;
18:13:30.903,-0.18872,0.34009,-0.77905;
18:13:30.913,-0.18286,0.32593,-0.89624;
18:13:30.923,-0.16357,0.30420,-0.98877;
18:13:30.933,-0.16968,0.27173,-1.05688;
18:13:30.943,-0.19263,0.27930,-1.11743;
18:13:30.953,-0.15991,0.24146,-1.15625;
18:13:30.963,-0.08984,0.23853,-1.21265;
18:13:30.973,-0.05322,0.33496,-1.30518;
18:13:30.983,-0.02124,0.42651,-1.37402;
18:13:30.993,-0.01318,0.48291,-1.42480;
18:13:31.003,-0.00854,0.56787,-1.47974;
18:13:31.013,0.04932,0.74219,-1.55347;
18:13:31.023,0.05029,0.88281,-1.56982;
18:13:31.033,-0.01636,0.90625,-1.52246;
18:13:31.043,-0.05518,0.90088,-1.45605;
18:13:31.053,-0.08081,0.91992,-1.42456;
18:13:31.063,-0.10742,0.88940,-1.41064;
18:13:31.073,-0.10425,0.80566,-1.40308;
18:13:31.083,-0.07056,0.68311,-1.37939;
18:13:31.093,-0.13452,0.60718,-1.29395;
18:13:31.103,-0.23511,0.47974,-1.19897;
18:13:31.113,-0.25586,0.34033,-1.11084;
18:13:31.123,-0.30029,0.23218,-1.02466;
18:13:31.133,-0.33569,0.01587,-0.90601;
18:13:31.143,-0.42847,-0.18945,-0.54858;
18:13:31.153,-0.91333,-0.82129,-0.29370;
18:13:31.163,-1.01831,-1.03711,-0.18481;
18:13:31.173,-1.07617,-1.25269,-0.01733;
18:13:31.183,-1.13159,-1.46704,0.10815;
18:13:31.193,-1.10645,-1.47388,0.18750;
18:13:31.203,-1.09863,-1.43896,0.25879;
18:13:31.213,-1.11108,-1.48120,0.32593;
18:13:31.223,-1.07178,-1.50537,0.40527;
18:13:31.233,-1.07715,-1.50415,0.46948;
18:13:31.243,-1.05103,-1.48145,0.55103;
18:13:31.253,-1.05249,-1.48511,0.64844;
18:13:31.263,-1.08521,-1.49414,0.75220;
18:13:31.273,-1.09082,-1.52075,0.85254;
18:13:31.283,-1.08398,-1.55054,0.93140;
18:13:31.293,-1.09546,-1.56006,1.02295;
18:13:31.303,-1.09912,-1.67798,1.16431;
18:13:31.313,-1.07349,-1.86719,1.37354;
18:13:31.323,-1.04248,-2.07178,1.61426;
18:13:31.333,-1.07422,-2.31934,2.07739;
18:13:31.343,-1.20264,-2.52026,2.57568;
18:13:31.353,-1.23291,-2.45215,2.78784;
18:13:31.363,-1.24146,-2.31616,2.99756;
18:13:31.373,-1.20190,-2.35986,2.92090;
18:13:31.383,-0.98267,-1.98389,2.31982;
18:13:31.393,-0.89233,-1.08057,1.51050;
18:13:31.403,-0.71899,-0.32593,0.72168;
18:13:31.413,-0.72583,-0.00293,0.47437;
18:13:31.423,-1.08618,0.36084,0.05444;
18:13:31.433,-0.58594,1.10083,-1.00171;
18:13:31.443,1.63281,0.71021,1.20679;
18:13:31.453,7.99976,-0.09204,-0.53198;
18:13:31.463,7.92383,-1.10938,-2.45972;
18:13:31.473,4.95630,-1.50024,-0.74756;
18:13:31.483,0.02661,0.33179,-0.05005;
18:13:31.493,-1.27026,1.52368,0.51196;
18:13:31.503,0.15698,0.54688,1.09570;
18:13:31.513,1.04932,0.82666,1.09839;
18:13:31.523,0.72827,2.11426,0.41968;
18:13:31.533,0.54614,1.90918,0.37598;
18:13:31.543,0.70459,0.37061,0.88574;
18:13:31.553,0.61108,-0.91870,1.24414;
18:13:31.563,0.34033,-1.37817,1.12329;
18:13:31.573,0.16089,-1.10767,0.79102;
18:13:31.583,0.11377,0.07471,0.44629;
18:13:31.593,0.19141,0.33569,0.36328;
18:13:31.603,0.29785,0.37280,0.29614;
18:13:31.613,0.39087,0.32446,0.21338;
18:13:31.623,0.42993,0.32568,0.08228;
18:13:31.633,0.40161,0.26587,-0.05322;
18:13:31.643,0.36377,0.09692,-0.15796;
18:13:31.653,0.32007,-0.10059,-0.23462;
18:13:31.663,0.26001,-0.29907,-0.23584;
18:13:31.673,0.22607,-0.39673,-0.25977;
18:13:31.683,0.17725,-0.43823,-0.34692;
18:13:31.693,0.15967,-0.46533,-0.36816;
18:13:31.703,0.14551,-0.46387,-0.33960;
18:13:31.713,0.10669,-0.51147,-0.36011;
18:13:31.723,0.11597,-0.58911,-0.34595;
18:13:31.733,-0.02173,-0.78101,-0.33252;
18:13:31.743,-0.11279,-0.95215,-0.52563;
18:13:31.753,-0.13647,-1.00781,-0.60889;
18:13:31.763,-0.22461,-1.04688,-0.61255;
18:13:31.773,-0.39819,-1.04175,-0.61084;
18:13:31.783,-0.48926,-0.94287,-0.68701;
18:13:31.793,-0.41943,-0.79614,-0.74316;
18:13:31.803,-0.25146,-0.71533,-0.75977;
18:13:31.813,-0.00146,-0.66357,-0.80127;
18:13:31.823,0.32471,-0.56274,-0.92139;
18:13:31.833,0.75952,-0.27954,-1.14917;
18:13:31.843,1.27490,0.29590,-1.35522;
18:13:31.853,1.59497,0.79541,-1.53394;
18:13:31.863,1.57495,0.92944,-1.76416;
18:13:31.873,1.55347,1.01563,-1.89258;
18:13:31.883,1.67822,1.25757,-1.92651;
18:13:31.893,1.77124,1.74829,-2.07764;
18:13:31.903,1.74194,1.65723,-2.15015;
18:13:31.913,1.75854,1.49292,-2.16650;
18:13:31.923,1.75977,1.36475,-2.08398;
18:13:31.933,1.77563,1.27588,-1.99048;
18:13:31.943,1.67017,1.14014,-1.91162;
18:13:31.953,1.42163,0.98950,-1.80786;
18:13:31.963,1.22168,0.93823,-1.64209;
18:13:31.973,1.09155,0.89404,-1.44409;
18:13:31.983,1.00317,0.87671,-1.25195;
18:13:31.993,0.98950,0.93213,-1.11719;
18:13:32.003,0.98828,1.13770,-1.05127;
18:13:32.013,0.92285,1.42993,-1.00342;
18:13:32.023,0.59790,1.66016,-0.97681;
18:13:32.033,0.47705,1.43286,-0.94849;
18:13:32.043,0.46704,1.30713,-0.95239;
18:13:32.053,0.48877,1.19946,-0.96582;
18:13:32.063,0.54272,1.11719,-0.98584;
18:13:32.073,0.60742,1.04712,-1.00977;
18:13:32.083,0.67505,1.01001,-1.02783;
18:13:32.093,0.70776,0.98560,-1.01514;
18:13:32.103,0.72021,0.94897,-0.99292;
18:13:32.113,0.71460,0.91626,-0.96191;
18:13:32.123,0.72046,0.89795,-0.93286;
18:13:32.133,0.76465,0.88232,-0.92163;
18:13:32.143,0.81177,0.83667,-0.90552;
18:13:32.153,0.87402,0.77637,-0.88403;
18:13:32.163,0.95313,0.71265,-0.86011;
18:13:32.173,1.02734,0.64648,-0.82446;
18:13:32.183,1.07056,0.59570,-0.77979;
18:13:32.193,1.10742,0.55713,-0.71045;
18:13:32.203,1.11621,0.49707,-0.63916;
18:13:32.213,1.08398,0.42651,-0.58887;
18:13:32.223,1.06836,0.39063,-0.54590;
18:13:32.233,1.07471,0.35400,-0.50977;
18:13:32.243,1.05542,0.31885,-0.47778;
18:13:32.253,1.09326,0.30518,-0.42188;
18:13:32.263,1.14038,0.31128,-0.36182;
18:13:32.273,1.13477,0.33081,-0.33960;
18:13:32.283,1.13599,0.36182,-0.31885;
18:13:32.293,1.12866,0.41724,-0.28735;
18:13:32.303,1.11279,0.46265,-0.18042;
18:13:32.313,1.12036,0.42603,-0.11401;
18:13:32.323,1.11621,0.41138,-0.09326;
18:13:32.333,1.08862,0.38550,-0.07935;
18:13:32.343,1.04907,0.35986,-0.06128;
18:13:32.353,1.02124,0.35425,-0.04102;
18:13:32.363,1.02368,0.36377,-0.03052;
18:13:32.373,1.03711,0.37402,-0.02173;
18:13:32.383,1.03662,0.38525,-0.01929;
18:13:32.393,1.01294,0.38477,-0.02026;
18:13:32.403,0.98169,0.38379,-0.01587;
18:13:32.413,0.95044,0.38501,-0.01733;
18:13:32.423,0.91602,0.37988,-0.01050;
18:13:32.433,0.89258,0.37598,-0.00098;
18:13:32.443,0.86597,0.36450,-0.00610;
18:13:32.453,0.84644,0.36084,-0.00562;
18:13:32.463,0.82739,0.36987,-0.00537;
18:13:32.473,0.82251,0.37329,-0.01807;
18:13:32.483,0.83496,0.35376,-0.02490;
18:13:32.493,0.83423,0.32275,-0.02466;
18:13:32.503,0.81006,0.31958,-0.03467;
18:13:32.513,0.78369,0.31030,-0.06226;
18:13:32.523,0.76733,0.31372,-0.09888;
18:13:32.533,0.76001,0.32788,-0.13379;
18:13:32.543,0.76465,0.31885,-0.16821;
18:13:32.553,0.77490,0.31006,-0.19019;
18:13:32.563,0.79883,0.31177,-0.21655;
18:13:32.573,0.82739,0.33911,-0.24805;
18:13:32.583,0.84375,0.38403,-0.27197;
18:13:32.593,0.84619,0.42383,-0.37720;
18:13:32.603,0.82813,0.38623,-0.45264;
18:13:32.613,0.82080,0.42017,-0.49170;
18:13:32.623,0.81030,0.46826,-0.53320;
18:13:32.633,0.79395,0.50391,-0.58716;
18:13:32.643,0.77612,0.52930,-0.61450;
18:13:32.653,0.78418,0.55396,-0.62476;
18:13:32.663,0.81152,0.58521,-0.64185;
18:13:32.673,0.82373,0.60352,-0.66187;
18:13:32.683,0.82422,0.60767,-0.68799;
18:13:32.693,0.82642,0.61719,-0.71265;
18:13:32.703,0.82300,0.63867,-0.73511;
18:13:32.713,0.82178,0.66553,-0.73682;
18:13:32.723,0.81982,0.67676,-0.73315;
18:13:32.733,0.80347,0.66089,-0.72241;
18:13:32.743,0.77954,0.65552,-0.71045;
18:13:32.753,0.75977,0.65747,-0.69092;
18:13:32.763,0.73535,0.68140,-0.68164;
18:13:32.773,0.70532,0.70679,-0.67505;
18:13:32.783,0.67578,0.70068,-0.66724;
18:13:32.793,0.65674,0.67383,-0.65991;
18:13:32.803,0.64819,0.64453,-0.64575;
18:13:32.813,0.64160,0.62378,-0.62329;
18:13:32.823,0.63110,0.60669,-0.60547;
18:13:32.833,0.60913,0.60010,-0.58911;
18:13:32.843,0.59302,0.61182,-0.57397;
18:13:32.853,0.58813,0.64014,-0.56934;
18:13:32.863,0.58765,0.65332,-0.56470;
18:13:32.873,0.59277,0.64111,-0.56396;
18:13:32.883,0.59033,0.62817,-0.57471;
18:13:32.893,0.58740,0.63013,-0.57520;
18:13:32.903,0.59546,0.62817,-0.56787;
18:13:32.913,0.61597,0.62158,-0.55151;
18:13:32.923,0.64282,0.61694,-0.52954;
18:13:32.933,0.67456,0.61035,-0.51196;
18:13:32.943,0.71216,0.60913,-0.49951;
18:13:32.953,0.74658,0.61743,-0.49121;
18:13:32.963,0.77222,0.62524,-0.48120;
18:13:32.973,0.78784,0.61914,-0.46777;
18:13:32.983,0.79858,0.60107,-0.44385;
18:13:32.993,0.80371,0.58887,-0.42798;
18:13:33.003,0.80933,0.57617,-0.41846;
18:13:33.013,0.81519,0.56641,-0.40552;
18:13:33.023,0.82153,0.55444,-0.39551;
18:13:33.033,0.83228,0.54272,-0.39014;
18:13:33.043,0.83862,0.53101,-0.38770;
18:13:33.053,0.84521,0.51782,-0.38013;
18:13:33.063,0.85107,0.50928,-0.37646;
18:13:33.073,0.84937,0.49951,-0.36572;
18:13:33.083,0.84814,0.49023,-0.36011;
18:13:33.093,0.84497,0.48438,-0.35718;
18:13:33.103,0.84448,0.48364,-0.35254;
18:13:33.113,0.84668,0.48511,-0.35034;
18:13:33.123,0.85010,0.48486,-0.35229;
18:13:33.133,0.84619,0.48633,-0.35889;
18:13:33.143,0.83862,0.48218,-0.35645;
18:13:33.153,0.82397,0.47705,-0.35474;
18:13:33.163,0.80078,0.48486,-0.36328;
18:13:33.173,0.77783,0.49976,-0.37231;
18:13:33.183,0.72021,0.50635,-0.41846;
18:13:33.193,0.69165,0.54370,-0.43042;
18:13:33.203,0.67163,0.55859,-0.43604;
18:13:33.213,0.65234,0.57031,-0.44116;
18:13:33.223,0.63892,0.58838,-0.44653;
18:13:33.233,0.62793,0.60547,-0.45166;
18:13:33.243,0.61353,0.61646,-0.45532;
18:13:33.253,0.59766,0.63208,-0.46826;
18:13:33.263,0.58350,0.66309,-0.48389;
18:13:33.273,0.56445,0.69946,-0.48682;
18:13:33.283,0.54175,0.72290,-0.49023;
18:13:33.293,0.51660,0.72339,-0.49561;
18:13:33.303,0.50098,0.71631,-0.49805;
18:13:33.313,0.49780,0.72437,-0.50049;
18:13:33.323,0.49829,0.73242,-0.49854;
18:13:33.333,0.50122,0.74512,-0.50269;
18:13:33.343,0.50293,0.76318,-0.50317;
18:13:33.353,0.50464,0.77466,-0.50000;
18:13:33.363,0.50391,0.78760,-0.49927;
18:13:33.373,0.49829,0.81567,-0.49731;
18:13:33.383,0.48682,0.86133,-0.49341;
18:13:33.393,0.47266,0.89111,-0.48853;
18:13:33.403,0.45752,0.90674,-0.48608;
18:13:33.413,0.44897,0.91089,-0.48657;
18:13:33.423,0.45190,0.92432,-0.49365;
18:13:33.433,0.45776,0.94702,-0.50537;
18:13:33.443,0.45435,0.95776,-0.52490;
18:13:33.453,0.44165,0.96143,-0.54272;
18:13:33.463,0.42480,0.97412,-0.55493;
18:13:33.473,0.41089,1.00806,-0.55273;
18:13:33.483,0.38696,1.05591,-0.53296;
18:13:33.493,0.36768,1.08032,-0.54126;
18:13:33.503,0.35400,1.06812,-0.57275;
18:13:33.513,0.33789,1.03760,-0.60938;
18:13:33.523,0.32764,1.01929,-0.64307;
18:13:33.533,0.31250,1.03296,-0.65698;
18:13:33.543,0.30908,1.08350,-0.65942;
18:13:33.553,0.30908,1.13477,-0.65332;
18:13:33.563,0.30591,1.15112,-0.64111;
18:13:33.573,0.29834,1.13647,-0.64478;
18:13:33.583,0.27783,1.11890,-0.64697;
18:13:33.593,0.26123,1.09570,-0.64697;
18:13:33.603,0.23950,1.07227,-0.65381;
18:13:33.613,0.32666,0.89771,-0.46680;
18:13:33.623,0.32275,0.94434,-0.51440;
18:13:33.633,0.29541,0.95557,-0.50049;
18:13:33.643,0.26733,0.93018,-0.48535;
18:13:33.653,0.22852,0.88379,-0.45874;
18:13:33.663,0.17920,0.83887,-0.42383;
18:13:33.673,0.13281,0.79541,-0.39844;
18:13:33.683,0.08228,0.76367,-0.38379;
18:13:33.693,-0.00122,0.67651,-0.35522;
18:13:33.703,0.00952,0.63452,-0.41431;
18:13:33.713,0.00146,0.57251,-0.44507;
18:13:33.723,-0.00220,0.51416,-0.46875;
18:13:33.733,0.00806,0.49585,-0.47900;
18:13:33.743,0.02026,0.48755,-0.46924;
18:13:33.753,0.04004,0.46680,-0.43481;
18:13:33.763,0.06567,0.43286,-0.39893;
18:13:33.773,0.08130,0.42383,-0.36963;
18:13:33.783,0.08838,0.43115,-0.33618;
18:13:33.793,0.11133,0.44946,-0.32080;
18:13:33.803,0.09985,0.48242,-0.34619;
18:13:33.813,0.10181,0.49365,-0.37158;
18:13:33.823,0.11548,0.48413,-0.38159;
18:13:33.833,0.11963,0.46631,-0.38208;
18:13:33.843,0.14258,0.43726,-0.37280;
18:13:33.853,0.14429,0.40894,-0.36353;
18:13:33.863,0.13354,0.39795,-0.35229;
18:13:33.873,0.09692,0.40332,-0.34131;
18:13:33.883,0.05420,0.41089,-0.34473;
18:13:33.893,0.01855,0.44531,-0.37012;
18:13:33.903,-0.01050,0.48828,-0.41797;
18:13:33.913,-0.03296,0.51050,-0.47437;
18:13:33.923,-0.05127,0.53516,-0.50513;
18:13:33.933,-0.07813,0.55347,-0.53101;
18:13:33.943,-0.10645,0.54688,-0.54834;
18:13:33.953,-0.12134,0.54272,-0.56055;
18:13:33.963,-0.12915,0.57300,-0.57813;
18:13:33.973,-0.13989,0.61133,-0.59570;
18:13:33.983,-0.15137,0.63867,-0.61255;
18:13:33.993,-0.12158,0.76245,-0.60327;
18:13:34.003,-0.08716,0.88867,-0.60254;
18:13:34.013,-0.07129,0.98560,-0.59912;
18:13:34.023,-0.06592,1.02637,-0.60278;
18:13:34.033,-0.06445,1.02295,-0.60352;
18:13:34.043,-0.03955,1.00073,-0.59326;
18:13:34.053,-0.01587,0.99707,-0.58472;
18:13:34.063,0.00146,0.99487,-0.57153;
18:13:34.073,0.02490,1.04736,-0.54907;
18:13:34.083,0.03735,1.14307,-0.52441;
18:13:34.093,0.06104,1.20361,-0.51025;
18:13:34.103,0.11621,1.15259,-0.51050;
18:13:34.113,0.14160,1.11377,-0.51904;
18:13:34.123,0.14502,1.09326,-0.51904;
18:13:34.133,0.15210,1.07739,-0.51172;
18:13:34.143,0.16284,1.06274,-0.49316;
18:13:34.153,0.18872,1.04785,-0.45923;
18:13:34.163,0.25000,1.04932,-0.42432;
18:13:34.173,0.30249,1.06348,-0.39795;
18:13:34.183,0.33154,1.06519,-0.37427;
18:13:34.193,0.34082,1.04785,-0.36108;
18:13:34.203,0.33545,1.01807,-0.34814;
18:13:34.213,0.31787,1.02979,-0.31958;
18:13:34.223,0.31372,1.13818,-0.28735;
18:13:34.233,0.32983,1.24268,-0.25366;
18:13:34.243,0.36377,1.26440,-0.23242;
18:13:34.253,0.35938,1.15723,-0.25659;
18:13:34.263,0.33081,1.09448,-0.27661;
18:13:34.273,0.31641,1.18481,-0.23511;
18:13:34.283,0.52173,1.77979,-0.14722;
18:13:34.293,0.49072,1.81934,-0.06909;
18:13:34.303,0.33545,1.75171,-0.09155;
18:13:34.313,0.17139,1.65381,-0.10400;
18:13:34.323,0.03418,1.49731,-0.06738;
18:13:34.333,-0.08057,1.38062,-0.02612;
18:13:34.343,-0.14795,1.27295,-0.00244;
18:13:34.353,-0.14673,1.25488,0.08398;
18:13:34.363,-0.16919,1.16235,-0.03027;
18:13:34.373,-0.06836,0.69897,-0.19604;
18:13:34.383,-0.07715,0.26660,-0.25562;
18:13:34.393,-0.07715,0.08398,-0.33228;
18:13:34.403,-0.13281,0.23779,-0.03931;
18:13:34.413,0.10571,0.26514,-0.65503;
18:13:34.423,0.00488,0.20898,-0.78247;
18:13:34.433,-0.28882,0.46973,-0.30884;
18:13:34.443,-0.35791,0.54858,-0.36011;
18:13:34.453,-0.59399,0.69214,-0.12769;
18:13:34.463,-0.60400,0.67041,-0.06250;
18:13:34.473,-0.63379,0.42261,0.09009;
18:13:34.483,-0.63257,0.29517,0.22510;
18:13:34.493,-0.68042,0.31738,0.30273;
18:13:34.503,-0.63525,0.43091,0.30469;
18:13:34.513,-0.54858,0.57397,0.32056;
18:13:34.523,-0.46533,0.69336,0.30859;
18:13:34.533,-0.44702,0.78467,0.26636;
18:13:34.543,-0.47607,0.84155,0.31763;
18:13:34.553,-0.54883,0.90137,0.43433;
18:13:34.563,-0.58008,0.93579,0.46851;
18:13:34.573,-0.36182,0.88379,0.27222;
18:13:34.583,-0.24585,0.85669,0.16235;
18:13:34.593,-0.20923,0.84790,0.10986;
18:13:34.603,-0.19287,0.83765,0.07837;
18:13:34.613,-0.20972,0.91675,0.09717;
18:13:34.623,-0.23804,1.00806,0.09766;
18:13:34.633,-0.24902,0.92798,0.09009;
18:13:34.643,-0.22388,0.87939,0.05273;
18:13:34.653,-0.19092,0.93530,-0.03491;
18:13:34.663,-0.20557,0.99072,-0.08789;
18:13:34.673,-0.23804,1.00537,-0.09229;
18:13:34.683,-0.26904,0.98535,-0.07983;
18:13:34.693,-0.28540,1.00073,-0.06812;
18:13:34.703,-0.29297,1.01733,-0.00171;
18:13:34.713,-0.29468,1.03467,0.05273;
18:13:34.723,-0.28418,1.16284,0.00293;
18:13:34.733,-0.26807,1.18555,-0.04907;
18:13:34.743,-0.24976,1.16797,-0.08203;
18:13:34.753,-0.25122,1.13965,-0.08423;
18:13:34.763,-0.26001,1.11938,-0.07910;
18:13:34.773,-0.25952,1.09985,-0.07715;
18:13:34.783,-0.25244,1.09937,-0.08105;
18:13:34.793,-0.24609,1.08984,-0.10181;
18:13:34.803,-0.23096,1.09424,-0.12354;
18:13:34.813,-0.22314,1.12207,-0.12012;
18:13:34.823,-0.22876,1.10571,-0.10571;
18:13:34.833,-0.23584,1.06836,-0.10400;
18:13:34.843,-0.23560,1.05078,-0.11328;
18:13:34.853,-0.22119,1.03931,-0.18457;
18:13:34.863,-0.19580,1.03076,-0.20117;
18:13:34.873,-0.20874,0.97266,-0.14551;
18:13:34.883,-0.20630,0.89307,-0.15723;
18:13:34.893,-0.18433,0.91650,-0.21240;
18:13:34.903,-0.17554,0.93018,-0.26196;
18:13:34.913,-0.18042,0.88672,-0.26880;
18:13:34.923,-0.20337,0.86255,-0.24854;
18:13:34.933,-0.24854,0.85913,-0.23926;
18:13:34.943,-0.28589,0.91772,-0.24414;
18:13:34.953,-0.32300,0.92798,-0.27979;
18:13:34.963,-0.30200,0.86523,-0.32715;
18:13:34.973,-0.27734,0.85474,-0.36792;
18:13:34.983,-0.32837,0.83350,-0.36841;
18:13:34.993,-0.36011,0.76611,-0.35938;
18:13:35.003,-0.37744,0.75977,-0.39624;
18:13:35.013,-0.40283,0.77100,-0.43188;
18:13:35.023,-0.43628,0.73022,-0.48340;
18:13:35.033,-0.38257,0.66650,-0.53906;
18:13:35.043,-0.28760,0.68457,-0.55200;
18:13:35.053,-0.40063,0.60718,-0.59009;
18:13:35.063,-0.38672,0.55493,-0.61304;
18:13:35.073,-0.31787,0.44702,-0.69116;
18:13:35.083,-0.34033,0.33472,-0.88550;
18:13:35.093,-0.30298,0.39868,-1.09619;
18:13:35.103,-0.32764,0.41602,-1.37012;
18:13:35.113,-0.32007,0.39893,-1.43018;
18:13:35.123,-0.41211,0.31348,-1.47510;
18:13:35.133,-0.27930,0.27979,-1.46802;
18:13:35.143,-0.24854,0.54395,-1.65894;
18:13:35.153,-0.31812,0.66772,-1.72095;
18:13:35.163,-0.40161,0.81787,-1.72876;
18:13:35.173,-0.46069,0.83057,-1.67163;
18:13:35.183,-0.46704,0.78125,-1.60229;
18:13:35.193,-0.46216,0.76025,-1.57056;
18:13:35.203,-0.48706,0.66943,-1.53101;
18:13:35.213,-0.45728,0.52100,-1.45142;
18:13:35.223,-0.47583,0.36694,-1.35791;
18:13:35.233,-0.51563,0.22437,-1.27759;
18:13:35.243,-0.53809,0.12134,-1.21875;
18:13:35.253,-0.57520,0.02393,-1.15308;
18:13:35.263,-0.62207,-0.15283,-1.05273;
18:13:35.273,-0.67920,-0.28662,-0.94800;
18:13:35.283,-0.71484,-0.40283,-0.82959;
18:13:35.293,-0.76465,-0.46948,-0.67163;
18:13:35.303,-0.80933,-0.56934,-0.48584;
18:13:35.313,-0.81665,-0.75903,-0.26538;
18:13:35.323,-0.84302,-0.90283,-0.07178;
18:13:35.333,-0.87109,-1.05835,0.04663;
18:13:35.343,-0.86670,-1.16528,0.13672;
18:13:35.353,-0.88135,-1.20801,0.24805;
18:13:35.363,-0.90479,-1.29150,0.39795;
18:13:35.373,-0.91260,-1.39136,0.50562;
18:13:35.383,-0.93188,-1.37451,0.56104;
18:13:35.393,-0.96338,-1.36353,0.63525;
18:13:35.403,-0.97510,-1.43408,0.72437;
18:13:35.413,-0.99927,-1.48877,0.81079;
18:13:35.423,-1.02588,-1.49463,0.85254;
18:13:35.433,-1.04517,-1.45972,0.98340;
18:13:35.443,-1.12036,-1.77759,1.42114;
18:13:35.453,-1.23193,-2.14893,1.91504;
18:13:35.463,-1.32422,-1.99902,2.17749;
18:13:35.473,-1.39575,-2.02588,2.47217;
18:13:35.483,-1.33911,-2.20728,2.60083;
18:13:35.493,-1.22412,-1.99731,2.40088;
18:13:35.503,-1.12769,-1.69751,1.94116;
18:13:35.513,-0.90967,-1.45898,1.36768;
18:13:35.523,-0.77808,-0.79028,0.86914;
18:13:35.533,-1.17188,-0.19263,0.77637;
18:13:35.543,-1.33984,0.06714,0.30688;
18:13:35.553,-0.68848,0.37598,-0.73755;
18:13:35.563,0.07886,0.62695,-1.17505;
18:13:35.573,0.33398,1.07910,-0.55981;
18:13:35.583,0.64502,0.60205,0.19434;
18:13:35.593,2.73364,-0.49951,2.05151;
18:13:35.603,6.96655,0.43677,1.93384;
18:13:35.613,7.99976,1.69824,-1.75293;
18:13:35.623,5.59180,-0.23584,-2.37402;
18:13:35.633,2.94922,-1.41968,-0.80200;
18:13:35.643,0.94946,0.08276,-0.04004;
18:13:35.653,-0.01758,0.32349,0.58496;
18:13:35.663,0.53516,0.79590,0.81714;
18:13:35.673,0.09302,1.65698,0.63428;
18:13:35.683,0.10791,1.38623,0.90527;
18:13:35.693,0.32349,0.17285,1.31616;
18:13:35.703,0.37744,-0.77979,1.26563;
18:13:35.713,0.27002,-1.03711,0.88818;
18:13:35.723,0.17188,-0.57129,0.11377;
18:13:35.733,0.25928,0.13110,-0.04810;
18:13:35.743,0.31958,0.24683,-0.01343;
18:13:35.753,0.36035,0.28101,-0.07764;
18:13:35.763,0.39185,0.18896,-0.19775;
18:13:35.773,0.37451,-0.02295,-0.27002;
18:13:35.783,0.30713,-0.25024,-0.27100;
18:13:35.793,0.23999,-0.46265,-0.31689;
18:13:35.803,0.15283,-0.57251,-0.34180;
18:13:35.813,0.00391,-0.66382,-0.31689;
18:13:35.823,-0.09814,-0.67236,-0.32007;
18:13:35.833,-0.18188,-0.59058,-0.30762;
18:13:35.843,-0.19409,-0.63159,-0.32373;
18:13:35.853,-0.15576,-0.74658,-0.37305;
18:13:35.863,-0.15503,-0.81421,-0.45459;
18:13:35.873,-0.13940,-0.75952,-0.49243;
18:13:35.883,-0.14917,-0.77271,-0.50781;
18:13:35.893,-0.16260,-0.82202,-0.54761;
18:13:35.903,-0.17236,-0.83545,-0.59399;
18:13:35.913,-0.23926,-0.86401,-0.61792;
18:13:35.923,-0.27881,-0.77881,-0.62354;
18:13:35.933,-0.19067,-0.61230,-0.66699;
18:13:35.943,-0.09399,-0.50122,-0.74414;
18:13:35.953,0.02954,-0.38672,-0.82568;
18:13:35.963,0.19287,-0.19873,-0.92017;
18:13:35.973,0.36328,0.04883,-1.09912;
18:13:35.983,0.59717,0.45581,-1.52881;
18:13:35.993,0.80811,0.89160,-1.99365;
18:13:36.003,0.90796,1.25708,-2.32593;
18:13:36.013,0.96704,1.50415,-2.11450;
18:13:36.023,0.89795,1.61694,-2.03101;
18:13:36.033,0.74243,1.63940,-2.03857;
18:13:36.043,0.56787,1.54126,-2.09521;
18:13:36.053,0.42432,1.38379,-2.11572;
18:13:36.063,0.31299,1.21777,-2.06836;
18:13:36.073,0.25903,1.07129,-1.96411;
18:13:36.083,0.22607,0.96704,-1.83472;
18:13:36.093,0.20239,0.91406,-1.67871;
18:13:36.103,0.18164,0.92188,-1.52319;
18:13:36.113,0.15625,0.98926,-1.39258;
18:13:36.123,0.10571,1.06958,-1.30542;
18:13:36.133,0.05493,1.16699,-1.24976;
18:13:36.143,0.03638,1.27930,-1.21875;
18:13:36.153,0.03491,1.37939,-1.22363;
18:13:36.163,0.04663,1.43921,-1.25415;
18:13:36.173,0.05518,1.44312,-1.30884;
18:13:36.183,0.04346,1.41943,-1.33301;
18:13:36.193,0.02661,1.39307,-1.32275;
18:13:36.203,0.01538,1.34521,-1.27930;
18:13:36.213,0.03345,1.30200,-1.23608;
18:13:36.223,0.06445,1.25000,-1.19775;
18:13:36.233,0.08984,1.15723,-1.13647;
18:13:36.243,0.11841,1.05469,-1.08276;
18:13:36.253,0.14355,0.96143,-1.03198;
18:13:36.263,0.16309,0.88477,-0.99121;
18:13:36.273,0.18433,0.82349,-0.95825;
18:13:36.283,0.20239,0.77295,-0.91675;
18:13:36.293,0.20605,0.72412,-0.79370;
18:13:36.303,0.31494,0.73242,-0.75586;
18:13:36.313,0.33521,0.76025,-0.72681;
18:13:36.323,0.37866,0.76514,-0.71118;
18:13:36.333,0.43457,0.78662,-0.71680;
18:13:36.343,0.47217,0.81885,-0.71533;
18:13:36.353,0.47241,0.81958,-0.69873;
18:13:36.363,0.47583,0.77905,-0.64600;
18:13:36.373,0.48389,0.73608,-0.58789;
18:13:36.383,0.53638,0.78174,-0.57178;
18:13:36.393,0.58105,0.80005,-0.58154;
18:13:36.403,0.56958,0.73071,-0.56592;
18:13:36.413,0.56445,0.68945,-0.52905;
18:13:36.423,0.55518,0.68750,-0.49683;
18:13:36.433,0.52954,0.68652,-0.46045;
18:13:36.443,0.49780,0.65820,-0.40625;
18:13:36.453,0.45996,0.63159,-0.34277;
18:13:36.463,0.44214,0.61304,-0.29443;
18:13:36.473,0.44849,0.60400,-0.27588;
18:13:36.483,0.42236,0.58667,-0.28003;
18:13:36.493,0.37549,0.56738,-0.28247;
18:13:36.503,0.33374,0.55591,-0.28638;
18:13:36.513,0.30347,0.54639,-0.28979;
18:13:36.523,0.29346,0.54736,-0.28931;
18:13:36.533,0.28955,0.53955,-0.29663;
18:13:36.543,0.28516,0.53296,-0.30859;
18:13:36.553,0.27466,0.53955,-0.31982;
18:13:36.563,0.25903,0.55054,-0.33667;
18:13:36.573,0.23511,0.55469,-0.34082;
18:13:36.583,0.23413,0.56787,-0.37427;
18:13:36.593,0.24097,0.56689,-0.40747;
18:13:36.603,0.26025,0.56006,-0.45605;
18:13:36.613,0.26245,0.54712,-0.47778;
18:13:36.623,0.27051,0.54736,-0.50293;
18:13:36.633,0.29053,0.59131,-0.55884;
18:13:36.643,0.32275,0.68872,-0.63770;
18:13:36.653,0.32373,0.78613,-0.70459;
18:13:36.663,0.30444,0.82715,-0.75195;
18:13:36.673,0.28638,0.81152,-0.76440;
18:13:36.683,0.27295,0.76514,-0.74902;
18:13:36.693,0.29126,0.71973,-0.72656;
18:13:36.703,0.34448,0.65869,-0.71875;
18:13:36.713,0.35742,0.62109,-0.73779;
18:13:36.723,0.37476,0.58154,-0.77124;
18:13:36.733,0.38965,0.54565,-0.80298;
18:13:36.743,0.40576,0.51855,-0.83569;
18:13:36.753,0.41626,0.50439,-0.85278;
18:13:36.763,0.42090,0.49097,-0.86035;
18:13:36.773,0.41479,0.48364,-0.85620;
18:13:36.783,0.41260,0.49146,-0.85107;
18:13:36.793,0.41406,0.49976,-0.83398;
18:13:36.803,0.44092,0.52393,-0.80151;
18:13:36.813,0.48730,0.58960,-0.78076;
18:13:36.823,0.52026,0.65674,-0.78052;
18:13:36.833,0.54395,0.70483,-0.79370;
18:13:36.843,0.54663,0.73047,-0.79980;
18:13:36.853,0.55371,0.72827,-0.78296;
18:13:36.863,0.58057,0.70801,-0.76392;
18:13:36.873,0.66235,0.64575,-0.72339;
18:13:36.883,0.67822,0.58374,-0.68286;
18:13:36.893,0.68311,0.55273,-0.66431;
18:13:36.903,0.70410,0.54419,-0.65234;
18:13:36.913,0.73120,0.56885,-0.64478;
18:13:36.923,0.75122,0.60132,-0.63892;
18:13:36.933,0.76294,0.62427,-0.63574;
18:13:36.943,0.75269,0.63599,-0.62354;
18:13:36.953,0.74658,0.63892,-0.59741;
18:13:36.963,0.74536,0.63232,-0.57813;
18:13:36.973,0.73584,0.62256,-0.55859;
18:13:36.983,0.72192,0.61035,-0.53540;
18:13:36.993,0.70850,0.58447,-0.51904;
18:13:37.003,0.70288,0.55420,-0.50708;
18:13:37.013,0.70850,0.52856,-0.50073;
18:13:37.023,0.71826,0.51489,-0.49487;
18:13:37.033,0.72510,0.50513,-0.49438;
18:13:37.043,0.73877,0.49854,-0.49390;
18:13:37.053,0.74780,0.49683,-0.48535;
18:13:37.063,0.75732,0.49536,-0.48145;
18:13:37.073,0.77173,0.49829,-0.47852;
18:13:37.083,0.78979,0.49976,-0.47583;
18:13:37.093,0.81738,0.50049,-0.47485;
18:13:37.103,0.85010,0.50757,-0.47437;
18:13:37.113,0.87817,0.51074,-0.47998;
18:13:37.123,0.90552,0.50952,-0.48633;
18:13:37.133,0.94751,0.51416,-0.49316;
18:13:37.143,1.00073,0.51709,-0.49634;
18:13:37.153,1.06079,0.51709,-0.49365;
18:13:37.163,1.13501,0.50854,-0.47485;
18:13:37.173,1.22363,0.45288,-0.45337;
18:13:37.183,1.05542,0.40698,-0.41943;
18:13:37.193,0.95972,0.40967,-0.40405;
18:13:37.203,0.89233,0.41406,-0.38135;
18:13:37.213,0.85156,0.40723,-0.35938;
18:13:37.223,0.84448,0.39160,-0.34058;
18:13:37.233,0.86938,0.36841,-0.31641;
18:13:37.243,0.90503,0.34839,-0.29614;
18:13:37.253,0.94165,0.33398,-0.27759;
18:13:37.263,0.96167,0.32568,-0.26196;
18:13:37.273,0.97852,0.32153,-0.25146;
18:13:37.283,0.99902,0.32422,-0.24634;
18:13:37.293,1.00146,0.34326,-0.24048;
18:13:37.303,0.99487,0.36914,-0.23047;
18:13:37.313,0.95752,0.39233,-0.23682;
18:13:37.323,0.91431,0.40259,-0.23999;
18:13:37.333,0.92139,0.41284,-0.23071;
18:13:37.343,0.87988,0.45215,-0.23169;
18:13:37.353,0.80005,0.46655,-0.23730;
18:13:37.363,0.79346,0.45947,-0.24194;
18:13:37.373,0.79468,0.46924,-0.23779;
18:13:37.383,0.78784,0.46509,-0.22144;
18:13:37.393,0.77808,0.45044,-0.21143;
18:13:37.403,0.76904,0.45532,-0.21191;
18:13:37.413,0.77881,0.47119,-0.20435;
18:13:37.423,0.79443,0.46997,-0.19995;
18:13:37.433,0.81274,0.46460,-0.20044;
18:13:37.443,0.82495,0.45630,-0.19775;
18:13:37.453,0.84375,0.45532,-0.19678;
18:13:37.463,0.85693,0.46045,-0.20654;
18:13:37.473,0.89380,0.47144,-0.20923;
18:13:37.483,0.90723,0.48999,-0.20117;
18:13:37.493,0.89941,0.50000,-0.20044;
18:13:37.503,0.89136,0.50586,-0.19775;
18:13:37.513,0.87915,0.50854,-0.19678;
18:13:37.523,0.86890,0.51270,-0.19678;
18:13:37.533,0.86523,0.52075,-0.19727;
18:13:37.543,0.86621,0.52686,-0.20142;
18:13:37.553,0.87012,0.53247,-0.20386;
18:13:37.563,0.87012,0.53638,-0.20581;
18:13:37.573,0.86890,0.54175,-0.21021;
18:13:37.583,0.85962,0.55103,-0.21460;
18:13:37.593,0.84766,0.55713,-0.21436;
18:13:37.603,0.83984,0.56104,-0.21606;
18:13:37.613,0.83887,0.56055,-0.22095;
18:13:37.623,0.84644,0.56250,-0.22534;
18:13:37.633,0.85864,0.56250,-0.22656;
18:13:37.643,0.87012,0.55981,-0.22705;
18:13:37.653,0.87964,0.56030,-0.22681;
18:13:37.663,0.88745,0.56372,-0.22974;
18:13:37.673,0.89307,0.57715,-0.23242;
18:13:37.683,0.83618,0.57544,-0.24243;
18:13:37.693,0.85596,0.57837,-0.24512;
18:13:37.703,0.85840,0.55542,-0.24194;
18:13:37.713,0.85645,0.54883,-0.24023;
18:13:37.723,0.86157,0.54272,-0.23804;
18:13:37.733,0.86719,0.53467,-0.23682;
18:13:37.743,0.87622,0.52686,-0.23535;
18:13:37.753,0.88379,0.51880,-0.23950;
18:13:37.763,0.88672,0.51367,-0.24048;
18:13:37.773,0.88892,0.50903,-0.23706;
18:13:37.783,0.89111,0.50952,-0.23657;
18:13:37.793,0.89185,0.50903,-0.23511;
18:13:37.803,0.89209,0.51001,-0.23193;
18:13:37.813,0.89722,0.50903,-0.22778;
18:13:37.823,0.89746,0.51074,-0.22485;
18:13:37.833,0.89526,0.51172,-0.22168;
18:13:37.843,0.89429,0.51001,-0.22144;
18:13:37.853,0.89355,0.50830,-0.21948;
18:13:37.863,0.89624,0.50391,-0.21631;
18:13:37.873,0.90625,0.50562,-0.20703;
18:13:37.883,0.93506,0.50781,-0.19800;
18:13:37.893,0.96582,0.51221,-0.19214;
18:13:37.903,0.98218,0.51123,-0.19434;
18:13:37.913,0.98193,0.51489,-0.19360;
18:13:37.923,0.96143,0.52002,-0.19800;
18:13:37.933,0.92432,0.52100,-0.21362;
18:13:37.943,0.88159,0.51904,-0.22900;
18:13:37.953,0.84229,0.51611,-0.24414;
18:13:37.963,0.80371,0.51147,-0.25635;
18:13:37.973,0.77686,0.50513,-0.28345;
18:13:37.983,0.75488,0.51025,-0.36523;
18:13:37.993,0.77417,0.52368,-0.39990;
18:13:38.003,0.78931,0.52148,-0.41309;
18:13:38.013,0.81543,0.51978,-0.42334;
18:13:38.023,0.84595,0.51587,-0.43213;
18:13:38.033,0.87598,0.51782,-0.43823;
18:13:38.043,0.90845,0.52344,-0.44604;
18:13:38.053,0.94360,0.52295,-0.45386;
18:13:38.063,0.98071,0.51538,-0.46802;
18:13:38.073,1.01050,0.51050,-0.48120;
18:13:38.083,1.02563,0.50977,-0.49438;
18:13:38.093,1.01904,0.50684,-0.49927;
18:13:38.103,1.00244,0.49487,-0.49170;
18:13:38.113,0.97705,0.48145,-0.48462;
18:13:38.123,0.94214,0.46729,-0.48486;
18:13:38.133,0.91235,0.45996,-0.48853;
18:13:38.143,0.88989,0.45874,-0.49414;
18:13:38.153,0.85840,0.46313,-0.49878;
18:13:38.163,0.82080,0.46899,-0.50342;
18:13:38.173,0.79199,0.47485,-0.51099;
18:13:38.183,0.77148,0.48438,-0.51807;
18:13:38.193,0.75684,0.49414,-0.52783;
18:13:38.203,0.73877,0.50366,-0.53296;
18:13:38.213,0.73169,0.50903,-0.54004;
18:13:38.223,0.72632,0.51172,-0.54102;
18:13:38.233,0.71899,0.51147,-0.54053;
18:13:38.243,0.71582,0.50732,-0.54297;
18:13:38.253,0.70483,0.50024,-0.54663;
18:13:38.263,0.68677,0.49780,-0.54102;
18:13:38.273,0.66357,0.50049,-0.54199;
18:13:38.283,0.60400,0.49341,-0.54004;
18:13:38.293,0.57739,0.49512,-0.52710;
18:13:38.303,0.56665,0.49438,-0.52295;
18:13:38.313,0.55518,0.49048,-0.51831;
18:13:38.323,0.54736,0.48706,-0.51123;
18:13:38.333,0.53955,0.48706,-0.50977;
18:13:38.343,0.53613,0.49707,-0.51147;
18:13:38.353,0.54346,0.51221,-0.51831;
18:13:38.363,0.55420,0.52417,-0.53052;
18:13:38.373,0.57275,0.52515,-0.53979;
18:13:38.383,0.60522,0.53198,-0.54785;
18:13:38.393,0.64282,0.55103,-0.55859;
18:13:38.403,0.67920,0.56519,-0.57178;
18:13:38.413,0.70752,0.57300,-0.57861;
18:13:38.423,0.71582,0.57617,-0.57202;
18:13:38.433,0.70728,0.56543,-0.55933;
18:13:38.443,0.68091,0.54346,-0.54492;
18:13:38.453,0.61304,0.52856,-0.51416;
18:13:38.463,0.58643,0.53345,-0.50879;
18:13:38.473,0.56616,0.53418,-0.50391;
18:13:38.483,0.55371,0.54199,-0.50415;
18:13:38.493,0.54565,0.55005,-0.50635;
18:13:38.503,0.53662,0.55615,-0.50635;
18:13:38.513,0.53613,0.57129,-0.50049;
18:13:38.523,0.53784,0.59473,-0.50000;
18:13:38.533,0.54126,0.62817,-0.51123;
18:13:38.543,0.54297,0.64526,-0.52075;
18:13:38.553,0.53613,0.64795,-0.53271;
18:13:38.563,0.53174,0.64771,-0.56323;
18:13:38.573,0.51025,0.66431,-0.57373;
18:13:38.583,0.46265,0.66162,-0.55151;
18:13:38.593,0.44019,0.67188,-0.53760;
18:13:38.603,0.42261,0.68237,-0.52466;
18:13:38.613,0.40771,0.69482,-0.52734;
18:13:38.623,0.39795,0.69360,-0.54395;
18:13:38.633,0.38428,0.69360,-0.62671;
18:13:38.643,0.38232,0.69702,-0.63159;
18:13:38.653,0.38086,0.70557,-0.62695;
18:13:38.663,0.37744,0.71484,-0.62134;
18:13:38.673,0.36914,0.72510,-0.62964;
18:13:38.683,0.36157,0.73657,-0.64087;
18:13:38.693,0.34961,0.74536,-0.65552;
18:13:38.703,0.33179,0.75977,-0.66919;
18:13:38.713,0.31543,0.76929,-0.68384;
18:13:38.723,0.29883,0.76758,-0.70068;
18:13:38.733,0.30737,0.78613,-0.70068;
18:13:38.743,0.31616,0.83154,-0.70044;
18:13:38.753,0.31152,0.87158,-0.69165;
18:13:38.763,0.30005,0.88062,-0.68555;
18:13:38.773,0.28711,0.87256,-0.67969;
18:13:38.783,0.27051,0.85986,-0.67236;
18:13:38.793,0.25610,0.85596,-0.66113;
18:13:38.803,0.24341,0.85864,-0.64795;
18:13:38.813,0.24341,0.88110,-0.62866;
18:13:38.823,0.23340,0.98169,-0.59180;
18:13:38.833,0.16553,0.97021,-0.54980;
18:13:38.843,0.15991,0.93579,-0.51953;
18:13:38.853,0.15869,0.92700,-0.50293;
18:13:38.863,0.17432,0.93066,-0.48560;
18:13:38.873,0.17651,0.94409,-0.47119;
18:13:38.883,0.16895,0.93823,-0.45459;
18:13:38.893,0.16479,0.93335,-0.46606;
18:13:38.903,0.14966,0.99731,-0.49390;
18:13:38.913,0.11743,1.04492,-0.50537;
18:13:38.923,0.10083,1.01123,-0.50244;
18:13:38.933,0.11523,0.95557,-0.46582;
18:13:38.943,0.14087,0.92578,-0.43408;
18:13:38.953,0.15601,0.92358,-0.42603;
18:13:38.963,0.15723,0.91016,-0.42285;
18:13:38.973,0.15723,0.87427,-0.41870;
18:13:38.983,0.15259,0.82593,-0.42554;
18:13:38.993,0.14600,0.79639,-0.45850;
18:13:39.003,0.14307,0.78784,-0.48975;
18:13:39.013,0.14355,0.78589,-0.50391;
18:13:39.023,0.14917,0.78442,-0.50586;
18:13:39.033,0.15869,0.77271,-0.49634;
18:13:39.043,0.18140,0.75073,-0.47852;
18:13:39.053,0.20874,0.74341,-0.50220;
18:13:39.063,0.22485,0.75610,-0.55298;
18:13:39.073,0.21362,0.76807,-0.58252;
18:13:39.083,0.18530,0.76318,-0.58447;
18:13:39.093,0.16553,0.78052,-0.56665;
18:13:39.103,0.14990,0.78931,-0.52563;
18:13:39.113,0.16431,0.77124,-0.48071;
18:13:39.123,0.19873,0.93359,-0.48926;
18:13:39.133,0.20166,0.87573,-0.39331;
18:13:39.143,0.20117,0.80566,-0.33740;
18:13:39.153,0.22534,0.76196,-0.29517;
18:13:39.163,0.19263,0.77075,-0.29761;
18:13:39.173,0.15991,0.71753,-0.29395;
18:13:39.183,0.15161,0.65625,-0.20996;
18:13:39.193,0.14722,0.60669,-0.13184;
18:13:39.203,0.13892,0.53369,-0.07373;
18:13:39.213,0.10718,0.42407,-0.02563;
18:13:39.223,0.10107,0.29761,0.05957;
18:13:39.233,0.13281,0.27661,0.31494;
18:13:39.243,0.21973,0.35913,0.48389;
18:13:39.253,-0.04346,0.63647,1.24268;
18:13:39.263,1.73462,0.68604,-2.70874;
18:13:39.273,0.81299,0.84375,-0.76416;
18:13:39.283,-0.05200,1.10645,0.94824;
18:13:39.293,-0.95898,0.36597,2.17554;
18:13:39.303,-1.16870,0.18091,1.70190;
18:13:39.313,-1.08496,0.92358,0.92749;
18:13:39.323,-0.19043,1.61011,0.45801;
18:13:39.333,0.12769,1.47534,0.41187;
18:13:39.343,-0.17065,1.42236,0.54370;
18:13:39.353,-0.46362,1.21753,0.63696;
18:13:39.363,-0.53442,0.98169,0.68042;
18:13:39.373,-0.46216,0.86914,0.67578;
18:13:39.383,-0.36011,0.77124,0.54517;
18:13:39.393,-0.30859,0.69385,0.36963;
18:13:39.403,-0.28320,1.05566,0.38477;
18:13:39.413,-0.37622,0.97559,0.32300;
18:13:39.423,-0.29956,0.84351,0.31299;
18:13:39.433,-0.22583,0.91895,0.30225;
18:13:39.443,-0.19604,1.00024,0.28516;
18:13:39.453,-0.16016,1.02856,0.28027;
18:13:39.463,-0.09717,1.05762,0.26563;
18:13:39.473,-0.03564,1.11157,0.21899;
18:13:39.483,0.00513,1.14844,0.15356;
18:13:39.493,0.02832,1.16846,0.13452;
18:13:39.503,0.01660,1.15845,0.17090;
18:13:39.513,-0.03174,1.14526,0.22705;
18:13:39.523,-0.08887,1.13281,0.25171;
18:13:39.533,-0.11328,1.13208,0.25513;
18:13:39.543,-0.09766,1.13086,0.22632;
18:13:39.553,-0.06079,1.12891,0.15845;
18:13:39.563,-0.02783,1.13184,0.11816;
18:13:39.573,-0.00708,1.13403,0.12280;
18:13:39.583,-0.00903,1.15454,0.13867;
18:13:39.593,-0.01831,1.16650,0.13574;
18:13:39.603,-0.00854,1.20117,0.10254;
18:13:39.613,0.02588,1.25708,0.03809;
18:13:39.623,0.04370,1.25879,-0.01416;
18:13:39.633,0.03491,1.23315,-0.03809;
18:13:39.643,0.03198,1.22949,-0.05176;
18:13:39.653,0.01880,1.21704,-0.05908;
18:13:39.663,0.01782,1.23438,-0.07324;
18:13:39.673,0.01758,1.22827,-0.10547;
18:13:39.683,0.05054,1.16284,-0.14258;
18:13:39.693,-0.00391,1.10718,-0.24927;
18:13:39.703,-0.07788,0.99780,-0.26831;
18:13:39.713,-0.10962,1.01172,-0.29443;
18:13:39.723,-0.11523,1.05762,-0.27808;
18:13:39.733,-0.15625,0.99731,-0.25928;
18:13:39.743,-0.16724,0.90698,-0.27490;
18:13:39.753,-0.17163,0.93433,-0.32446;
18:13:39.763,-0.19775,0.92603,-0.38354;
18:13:39.773,-0.18604,0.80444,-0.39478;
18:13:39.783,-0.17529,0.80835,-0.42432;
18:13:39.793,-0.26318,0.84326,-0.47144;
18:13:39.803,-0.34058,0.75610,-0.49683;
18:13:39.813,-0.32153,0.65918,-0.52612;
18:13:39.823,-0.31152,0.57886,-0.58350;
18:13:39.833,-0.33350,0.56860,-0.69336;
18:13:39.843,-0.36597,0.50024,-0.79736;
18:13:39.853,-0.34082,0.43628,-0.86792;
18:13:39.863,-0.33667,0.45313,-0.96265;
18:13:39.873,-0.35620,0.42407,-1.21851;
18:13:39.883,-0.30151,0.45972,-1.38013;
18:13:39.893,-0.19849,0.45508,-1.49634;
18:13:39.903,-0.21997,0.47046,-1.53906;
18:13:39.913,-0.27173,0.53003,-1.50488;
18:13:39.923,-0.29272,0.57251,-1.49976;
18:13:39.933,-0.32715,0.72461,-1.54858;
18:13:39.943,-0.32861,0.82422,-1.56323;
18:13:39.953,-0.33276,0.80322,-1.61011;
18:13:39.963,-0.31812,0.79004,-1.72192;
18:13:39.973,-0.41553,0.82764,-1.61182;
18:13:39.983,-0.48096,0.61279,-1.51831;
18:13:39.993,-0.45288,0.54419,-1.50806;
18:13:40.003,-0.48828,0.40942,-1.43994;
18:13:40.013,-0.52002,0.27686,-1.30688;
18:13:40.023,-0.59692,0.17944,-1.16724;
18:13:40.033,-0.69556,0.03296,-1.05713;
18:13:40.043,-0.75000,-0.09009,-0.96826;
18:13:40.053,-0.74048,-0.21191,-0.87939;
18:13:40.063,-0.73730,-0.35791,-0.71265;
18:13:40.073,-0.79639,-0.48926,-0.48730;
18:13:40.083,-0.85547,-0.64600,-0.28931;
18:13:40.093,-0.88818,-0.82275,-0.07495;
18:13:40.103,-0.91235,-0.94214,0.10498;
18:13:40.113,-0.90698,-1.03613,0.19873;
18:13:40.123,-0.89746,-1.04907,0.23755;
18:13:40.133,-0.94556,-1.05933,0.30542;
18:13:40.143,-0.94385,-1.21313,0.44653;
18:13:40.153,-0.92578,-1.37769,0.58594;
18:13:40.163,-0.93872,-1.45947,0.69702;
18:13:40.173,-0.93140,-1.47510,0.78076;
18:13:40.183,-0.92896,-1.50464,0.86914;
18:13:40.193,-0.93701,-1.55908,0.94678;
18:13:40.203,-0.93872,-1.55737,0.99829;
18:13:40.213,-0.95459,-1.61572,1.09082;
18:13:40.223,-0.97632,-1.70850,1.24512;
18:13:40.233,-0.99878,-1.77246,1.38184;
18:13:40.243,-1.06958,-1.91309,1.54004;
18:13:40.253,-1.14575,-2.08228,2.45142;
18:13:40.263,-1.20459,-2.14526,2.67480;
18:13:40.273,-1.08545,-1.66235,1.84985;
18:13:40.283,-0.97168,-1.16919,1.34424;
18:13:40.293,-0.73975,-0.90625,0.90063;
18:13:40.303,-0.84595,-0.26538,0.68579;
18:13:40.313,-1.12402,0.34106,0.38013;
18:13:40.323,-0.67651,0.65576,-0.41577;
18:13:40.333,0.27173,0.76953,-0.73364;
18:13:40.343,1.30835,1.34253,-0.78003;
18:13:40.353,2.28857,1.26025,-0.61548;
18:13:40.363,5.56934,0.10938,0.75952;
18:13:40.373,7.99097,0.11304,-0.07251;
18:13:40.383,6.09741,1.05591,-1.19995;
18:13:40.393,2.98267,0.44263,-0.98657;
18:13:40.403,1.24097,-0.22852,-0.73804;
18:13:40.413,0.49316,0.00122,0.65771;
18:13:40.423,-0.29346,-0.34277,1.27759;
18:13:40.433,-0.19727,-0.32397,1.36328;
18:13:40.443,-0.08960,-0.43628,1.40894;
18:13:40.453,-0.11304,-0.45288,1.32666;
18:13:40.463,0.11279,-0.32837,1.04712;
18:13:40.473,0.46265,-0.53442,0.36035;
18:13:40.483,0.53809,-0.54150,0.20483;
18:13:40.493,0.56079,-0.36304,0.15649;
18:13:40.503,0.55078,-0.13062,0.18774;
18:13:40.513,0.57104,0.10107,0.23950;
18:13:40.523,0.56982,0.31421,0.26392;
18:13:40.533,0.57275,0.42432,0.23364;
18:13:40.543,0.61011,0.24512,0.03857;
18:13:40.553,0.55591,0.13647,-0.04004;
18:13:40.563,0.43359,0.10498,-0.08374;
18:13:40.573,0.31738,0.07422,-0.09985;
18:13:40.583,0.21704,0.17871,-0.10742;
18:13:40.593,0.10547,0.15991,-0.19385;
18:13:40.603,-0.01733,-0.00317,-0.33618;
18:13:40.613,-0.10596,-0.14941,-0.43481;
18:13:40.623,-0.11450,-0.29883,-0.48560;
18:13:40.633,-0.06787,-0.44336,-0.51636;
18:13:40.643,0.00195,-0.58838,-0.60425;
18:13:40.653,0.11255,-0.65698,-0.75659;
18:13:40.663,0.23486,-0.58057,-0.83350;
18:13:40.673,0.26074,-0.54810,-0.89844;
18:13:40.683,0.11084,-0.62866,-1.02954;
18:13:40.693,-0.08130,-0.58350,-1.10669;
18:13:40.703,-0.14258,-0.42920,-1.13281;
18:13:40.713,-0.09570,-0.25073,-1.13818;
18:13:40.723,0.11523,-0.08618,-1.32983;
18:13:40.733,0.39966,0.01172,-1.66187;
18:13:40.743,0.89819,0.20435,-2.04077;
18:13:40.753,1.16431,0.54858,-2.15405;
18:13:40.763,1.44312,1.03198,-2.21753;
18:13:40.773,1.52393,1.32520,-2.33032;
18:13:40.783,1.36450,1.35474,-2.45483;
18:13:40.793,1.26440,1.39819,-2.45386;
18:13:40.803,1.20190,1.44727,-2.43481;
18:13:40.813,1.11060,1.45605,-2.41040;
18:13:40.823,1.00317,1.21997,-2.36499;
18:13:40.833,0.67310,0.95288,-2.28223;
18:13:40.843,0.54126,0.93970,-2.09619;
18:13:40.853,0.45825,0.99536,-1.90186;
18:13:40.863,0.37646,1.06055,-1.70386;
18:13:40.873,0.29883,1.12988,-1.55469;
18:13:40.883,0.23706,1.16650,-1.46338;
18:13:40.893,0.17041,1.18799,-1.40479;
18:13:40.903,0.12720,1.18970,-1.37988;
18:13:40.913,0.09399,1.18945,-1.35522;
18:13:40.923,0.06421,1.17480,-1.32739;
18:13:40.933,0.03979,1.14063,-1.31226;
18:13:40.943,0.03149,1.12256,-1.29614;
18:13:40.953,0.04907,1.11182,-1.28101;
18:13:40.963,0.07837,1.09595,-1.27686;
18:13:40.973,0.13916,1.10107,-1.30957;
18:13:40.983,0.22388,1.12427,-1.35010;
18:13:40.993,0.31152,1.14014,-1.36841;
18:13:41.003,0.38501,1.13599,-1.35522;
18:13:41.013,0.44019,1.08740,-1.29150;
18:13:41.023,0.47900,1.00806,-1.20679;
18:13:41.033,0.50757,0.92334,-1.11279;
18:13:41.043,0.52808,0.84424,-1.00439;
18:13:41.053,0.54565,0.76074,-0.91650;
18:13:41.063,0.57617,0.65161,-0.85645;
18:13:41.073,0.60742,0.54419,-0.81787;
18:13:41.083,0.63428,0.48511,-0.79175;
18:13:41.093,0.64941,0.47266,-0.77271;
18:13:41.103,0.64648,0.47998,-0.75146;
18:13:41.113,0.61426,0.58569,-0.66040;
18:13:41.123,0.68628,0.64209,-0.61255;
18:13:41.133,0.70386,0.62402,-0.59424;
18:13:41.143,0.72070,0.57666,-0.58960;
18:13:41.153,0.75269,0.55273,-0.57788;
18:13:41.163,0.76514,0.55640,-0.55127;
18:13:41.173,0.75708,0.53833,-0.51611;
18:13:41.183,0.74512,0.51196,-0.48389;
18:13:41.193,0.75195,0.50635,-0.44824;
18:13:41.203,0.75977,0.51074,-0.42310;
18:13:41.213,0.73608,0.50562,-0.40283;
18:13:41.223,0.69287,0.49878,-0.38550;
18:13:41.233,0.67114,0.50000,-0.38135;
18:13:41.243,0.65698,0.50122,-0.37231;
18:13:41.253,0.63818,0.48657,-0.37573;
18:13:41.263,0.61865,0.47437,-0.38477;
18:13:41.273,0.60010,0.47729,-0.39111;
18:13:41.283,0.57495,0.47070,-0.38428;
18:13:41.293,0.55835,0.46509,-0.37793;
18:13:41.303,0.56421,0.47998,-0.38818;
18:13:41.313,0.55786,0.48511,-0.40771;
18:13:41.323,0.53906,0.49658,-0.44067;
18:13:41.333,0.52002,0.51221,-0.47827;
18:13:41.343,0.49707,0.50610,-0.49683;
18:13:41.353,0.48267,0.49561,-0.50635;
18:13:41.363,0.47876,0.49512,-0.52686;
18:13:41.373,0.46045,0.48389,-0.54834;
18:13:41.383,0.43335,0.46875,-0.58179;
18:13:41.393,0.40894,0.46240,-0.61816;
18:13:41.403,0.40234,0.45483,-0.68848;
18:13:41.413,0.42920,0.46997,-0.74976;
18:13:41.423,0.48828,0.49146,-0.80640;
18:13:41.433,0.50146,0.46631,-0.81714;
18:13:41.443,0.50977,0.44434,-0.84937;
18:13:41.453,0.50903,0.42236,-0.86963;
18:13:41.463,0.51172,0.42578,-0.90210;
18:13:41.473,0.51758,0.45190,-0.94434;
18:13:41.483,0.52271,0.47656,-0.96631;
18:13:41.493,0.52441,0.47632,-0.96094;
18:13:41.503,0.51489,0.46143,-0.93921;
18:13:41.513,0.49609,0.47021,-0.91602;
18:13:41.523,0.48022,0.49902,-0.89600;
18:13:41.533,0.46680,0.52808,-0.87427;
18:13:41.543,0.45483,0.56445,-0.86694;
18:13:41.553,0.43506,0.59424,-0.86890;
18:13:41.563,0.41699,0.64355,-0.84229;
18:13:41.573,0.41406,0.64697,-0.82861;
18:13:41.583,0.41357,0.65552,-0.81860;
18:13:41.593,0.41870,0.66479,-0.81226;
18:13:41.603,0.43066,0.67896,-0.81323;
18:13:41.613,0.44312,0.68433,-0.81128;
18:13:41.623,0.45874,0.68237,-0.80298;
18:13:41.633,0.48022,0.67456,-0.79614;
18:13:41.643,0.49951,0.67163,-0.79370;
18:13:41.653,0.51245,0.68042,-0.79272;
18:13:41.663,0.52100,0.69263,-0.78418;
18:13:41.673,0.52661,0.69604,-0.77271;
18:13:41.683,0.52808,0.69336,-0.74756;
18:13:41.693,0.48950,0.67188,-0.71167;
18:13:41.703,0.46362,0.64453,-0.68726;
18:13:41.713,0.39990,0.54321,-0.56763;
18:13:41.723,0.40479,0.54761,-0.56152;
18:13:41.733,0.40942,0.55127,-0.55591;
18:13:41.743,0.41992,0.55420,-0.54834;
18:13:41.753,0.43896,0.55737,-0.54443;
18:13:41.763,0.45996,0.55786,-0.54224;
18:13:41.773,0.49170,0.55493,-0.54102;
18:13:41.783,0.52832,0.56494,-0.54565;
18:13:41.793,0.56445,0.56323,-0.54468;
18:13:41.803,0.60376,0.54102,-0.53638;
18:13:41.813,0.63892,0.51831,-0.52515;
18:13:41.823,0.68262,0.47168,-0.49463;
18:13:41.833,0.70190,0.46777,-0.48999;
18:13:41.843,0.71875,0.47900,-0.48022;
18:13:41.853,0.72607,0.47290,-0.46875;
18:13:41.863,0.71973,0.46143,-0.45703;
18:13:41.873,0.70190,0.44751,-0.44653;
18:13:41.883,0.67725,0.44336,-0.42651;
18:13:41.893,0.65942,0.44141,-0.39600;
18:13:41.903,0.69336,0.42749,-0.36353;
18:13:41.913,0.77563,0.41675,-0.32495;
18:13:41.923,0.81079,0.40454,-0.31152;
18:13:41.933,0.84937,0.39502,-0.29858;
18:13:41.943,0.88477,0.39038,-0.28906;
18:13:41.953,0.91162,0.38281,-0.27686;
18:13:41.963,0.94312,0.38647,-0.26270;
18:13:41.973,0.95850,0.41187,-0.25610;
18:13:41.983,0.95239,0.42383,-0.25073;
18:13:41.993,0.94629,0.42725,-0.24341;
18:13:42.003,0.94092,0.44214,-0.23657;
18:13:42.013,0.92920,0.44482,-0.22559;
18:13:42.023,0.92090,0.44556,-0.22192;
18:13:42.033,0.91968,0.44702,-0.21777;
18:13:42.043,0.92090,0.45166,-0.21851;
18:13:42.053,0.93115,0.45996,-0.22681;
18:13:42.063,0.94604,0.46899,-0.23560;
18:13:42.073,0.96289,0.48120,-0.24683;
18:13:42.083,0.98047,0.49390,-0.25977;
18:13:42.093,0.99487,0.50391,-0.27002;
18:13:42.103,1.00610,0.50928,-0.27393;
18:13:42.113,1.01514,0.51270,-0.26294;
18:13:42.123,1.03247,0.50977,-0.26074;
18:13:42.133,1.04663,0.50562,-0.25513;
18:13:42.143,1.05420,0.49390,-0.24219;
18:13:42.153,1.06201,0.47876,-0.22778;
18:13:42.163,1.06470,0.46973,-0.21265;
18:13:42.173,1.06812,0.46558,-0.17578;
18:13:42.183,1.06226,0.44678,-0.14551;
18:13:42.193,1.06665,0.44507,-0.12476;
18:13:42.203,1.08276,0.44775,-0.11548;
18:13:42.213,1.11377,0.45459,-0.09937;
18:13:42.223,1.14014,0.46460,-0.08154;
18:13:42.233,1.15015,0.47827,-0.07349;
18:13:42.243,1.13477,0.49121,-0.06812;
18:13:42.253,1.09082,0.51172,-0.07666;
18:13:42.263,1.03296,0.52905,-0.08716;
18:13:42.273,0.97314,0.53760,-0.10718;
18:13:42.283,0.91382,0.55493,-0.13599;
18:13:42.293,0.85962,0.56519,-0.16846;
18:13:42.303,0.82471,0.56104,-0.19507;
18:13:42.313,0.81665,0.57300,-0.22021;
18:13:42.323,0.81421,0.59033,-0.24902;
18:13:42.333,0.80713,0.58374,-0.26831;
18:13:42.343,0.80688,0.57178,-0.28369;
18:13:42.353,0.81128,0.56543,-0.29395;
18:13:42.363,0.82886,0.57227,-0.31274;
18:13:42.373,0.85669,0.57251,-0.34839;
18:13:42.383,0.88770,0.56396,-0.38159;
18:13:42.393,0.91260,0.54761,-0.40015;
18:13:42.403,0.93677,0.51831,-0.40698;
18:13:42.413,0.95557,0.48975,-0.39136;
18:13:42.423,0.97021,0.45801,-0.37695;
18:13:42.433,0.98535,0.42676,-0.37207;
18:13:42.443,0.99194,0.40430,-0.36963;
18:13:42.453,0.99512,0.38989,-0.37256;
18:13:42.463,0.99146,0.37451,-0.37476;
18:13:42.473,0.95581,0.33472,-0.39233;
18:13:42.483,0.93066,0.35815,-0.40942;
18:13:42.493,0.91650,0.38501,-0.40723;
18:13:42.503,0.90576,0.39697,-0.40356;
18:13:42.513,0.90015,0.40039,-0.40381;
18:13:42.523,0.89648,0.40503,-0.39941;
18:13:42.533,0.89038,0.40503,-0.39941;
18:13:42.543,0.88379,0.40161,-0.39722;
18:13:42.553,0.87817,0.39478,-0.38721;
18:13:42.563,0.86963,0.38599,-0.38037;
18:13:42.573,0.86597,0.37769,-0.37622;
18:13:42.583,0.87061,0.36743,-0.36475;
18:13:42.593,0.87427,0.35376,-0.35815;
18:13:42.603,0.87231,0.34570,-0.35352;
18:13:42.613,0.87134,0.34058,-0.35107;
18:13:42.623,0.87354,0.33643,-0.34424;
18:13:42.633,0.87451,0.33569,-0.33569;
18:13:42.643,0.87134,0.33569,-0.33325;
18:13:42.653,0.86621,0.33618,-0.32666;
18:13:42.663,0.85815,0.34033,-0.31787;
18:13:42.673,0.84839,0.34595,-0.30933;
18:13:42.683,0.84033,0.34839,-0.30347;
18:13:42.693,0.83154,0.35815,-0.30005;
18:13:42.703,0.82886,0.36719,-0.30273;
18:13:42.713,0.83325,0.37134,-0.30151;
18:13:42.723,0.83472,0.37500,-0.29736;
18:13:42.733,0.83813,0.37720,-0.29810;
18:13:42.743,0.84399,0.37842,-0.30054;
18:13:42.753,0.84692,0.37573,-0.30127;
18:13:42.763,0.84961,0.37256,-0.29150;
18:13:42.773,0.86353,0.37817,-0.28345;
18:13:42.783,0.87207,0.38257,-0.28247;
18:13:42.793,0.87769,0.39063,-0.28101;
18:13:42.803,0.88110,0.39404,-0.28149;
18:13:42.813,0.88184,0.39917,-0.28174;
18:13:42.823,0.88086,0.40112,-0.27832;
18:13:42.833,0.88110,0.40405,-0.27417;
18:13:42.843,0.88159,0.40918,-0.26978;
18:13:42.853,0.88184,0.41357,-0.27344;
18:13:42.863,0.87866,0.41553,-0.27539;
18:13:42.873,0.87549,0.41528,-0.27515;
18:13:42.883,0.87231,0.41772,-0.27979;
18:13:42.893,0.86548,0.42310,-0.27881;
18:13:42.903,0.86182,0.42554,-0.28271;
18:13:42.913,0.86255,0.42578,-0.29199;
18:13:42.923,0.86694,0.42554,-0.29102;
18:13:42.933,0.87036,0.42383,-0.29053;
18:13:42.943,0.87524,0.42578,-0.29492;
18:13:42.953,0.88013,0.42212,-0.29736;
18:13:42.963,0.88208,0.41992,-0.30054;
18:13:42.973,0.88477,0.42236,-0.30176;
18:13:42.983,0.88623,0.42456,-0.30103;
18:13:42.993,0.88623,0.42676,-0.30859;
18:13:43.003,0.88770,0.42578,-0.31201;
18:13:43.013,0.88989,0.42383,-0.31299;
18:13:43.023,0.89185,0.42480,-0.31445;
18:13:43.033,0.89551,0.42920,-0.31372;
18:13:43.043,0.89697,0.43018,-0.31396;
18:13:43.053,0.89624,0.43018,-0.31616;
18:13:43.063,0.89233,0.42773,-0.31860;
18:13:43.073,0.88818,0.43066,-0.31860;
18:13:43.083,0.88989,0.42773,-0.31860;
18:13:43.093,0.89233,0.42700,-0.32056;
18:13:43.103,0.88989,0.42432,-0.32129;
18:13:43.113,0.88770,0.42212,-0.32153;
18:13:43.123,0.88501,0.42188,-0.32251;
18:13:43.133,0.88403,0.41943,-0.32593;
18:13:43.143,0.88428,0.42041,-0.32739;
18:13:43.153,0.88452,0.41895,-0.32886;
18:13:43.163,0.88672,0.41821,-0.32764;
18:13:43.173,0.88599,0.41968,-0.32813;
18:13:43.183,0.88574,0.41992,-0.33130;
18:13:43.193,0.88550,0.42065,-0.33032;
18:13:43.203,0.88647,0.42578,-0.33252;
18:13:43.213,0.88892,0.42700,-0.33496;
18:13:43.223,0.89160,0.42603,-0.33447;
18:13:43.233,0.89429,0.42993,-0.33252;
18:13:43.243,0.89526,0.42969,-0.33276;
18:13:43.253,0.89233,0.43213,-0.33398;
18:13:43.263,0.88940,0.43311,-0.33081;
18:13:43.273,0.88745,0.43042,-0.33057;
18:13:43.283,0.88452,0.42871,-0.33228;
18:13:43.293,0.88403,0.42871,-0.32983;
18:13:43.303,0.88208,0.43286,-0.32861;
18:13:43.313,0.88379,0.43408,-0.33105;
18:13:43.323,0.88184,0.43384,-0.32959;
18:13:43.333,0.88135,0.43628,-0.32764;
18:13:43.343,0.88452,0.43994,-0.32495;
18:13:43.353,0.88525,0.43970,-0.32227;
18:13:43.363,0.88794,0.44263,-0.32007;
18:13:43.373,0.88672,0.45264,-0.32324;
18:13:43.383,0.88306,0.45874,-0.32520;
18:13:43.393,0.88086,0.46094,-0.32251;
18:13:43.403,0.87891,0.45874,-0.32642;
18:13:43.413,0.87695,0.46191,-0.32544;
18:13:43.423,0.87964,0.46533,-0.31982;
18:13:43.433,0.88281,0.46582,-0.31738;
18:13:43.443,0.88550,0.46802,-0.31714;
18:13:43.453,0.88892,0.46631,-0.31665;
18:13:43.463,0.88892,0.46606,-0.31299;
18:13:43.473,0.88379,0.46753,-0.31519;
18:13:43.483,0.87891,0.46680,-0.31982;
18:13:43.493,0.87720,0.46704,-0.31812;
18:13:43.503,0.87866,0.47095,-0.31836;
18:13:43.513,0.87964,0.47241,-0.31909;
18:13:43.523,0.87988,0.47241,-0.32324;
18:13:43.533,0.87817,0.47559,-0.32349;
18:13:43.543,0.87769,0.47998,-0.32544;
18:13:43.553,0.87939,0.49097,-0.32886;
18:13:43.563,0.88159,0.49951,-0.33105;
18:13:43.573,0.88428,0.50488,-0.33301;
18:13:43.583,0.88232,0.51025,-0.32959;
18:13:43.593,0.88330,0.51636,-0.32935;
18:13:43.603,0.88330,0.52539,-0.32788;
18:13:43.613,0.88232,0.53198,-0.32764;
18:13:43.623,0.88232,0.53955,-0.33008;
18:13:43.633,0.87988,0.54614,-0.32813;
18:13:43.643,0.87427,0.54370,-0.32910;
18:13:43.653,0.86597,0.54199,-0.33228;
18:13:43.663,0.83960,0.57080,-0.36572;
18:13:43.673,0.82593,0.58521,-0.37793;
18:13:43.683,0.81738,0.58008,-0.38599;
18:13:43.693,0.80835,0.58130,-0.39551;
18:13:43.703,0.79761,0.59326,-0.40161;
