time,acc_x,acc_y,acc_z
18:12:54.027,0.23218,-0.95972,-0.08081;
18:12:54.037,0.23120,-0.96045,-0.08350;
18:12:54.047,0.23340,-0.96167,-0.08325;
18:12:54.057,0.23242,-0.96484,-0.08496;
18:12:54.067,0.23462,-0.96094,-0.08643;
18:12:54.077,0.23755,-0.95923,-0.08569;
18:12:54.087,0.23706,-0.95874,-0.08594;
18:12:54.097,0.23730,-0.95752,-0.08423;
18:12:54.107,0.23657,-0.96216,-0.08374;
18:12:54.117,0.23047,-0.96924,-0.08081;
18:12:54.127,0.23193,-0.95850,-0.09229;
18:12:54.137,0.23511,-0.96191,-0.09229;
18:12:54.147,0.23682,-0.96143,-0.09619;
18:12:54.157,0.23291,-0.95776,-0.09985;
18:12:54.167,0.23169,-0.95996,-0.10205;
18:12:54.177,0.23389,-0.96191,-0.09961;
18:12:54.187,0.23584,-0.95654,-0.09644;
18:12:54.197,0.23413,-0.95996,-0.09717;
18:12:54.207,0.23511,-0.96118,-0.09180;
18:12:54.217,0.23755,-0.95581,-0.08740;
18:12:54.227,0.23584,-0.95483,-0.08936;
18:12:54.237,0.23657,-0.95728,-0.08496;
18:12:54.247,0.23608,-0.95850,-0.07910;
18:12:54.257,0.23389,-0.96558,-0.07813;
18:12:54.267,0.23291,-0.96997,-0.07373;
18:12:54.277,0.23267,-0.96411,-0.07275;
18:12:54.287,0.23315,-0.95752,-0.08228;
18:12:54.297,0.23242,-0.95483,-0.08032;
18:12:54.307,0.23462,-0.95410,-0.08130;
18:12:54.317,0.23413,-0.96143,-0.09399;
18:12:54.327,0.23730,-0.96362,-0.09521;
18:12:54.337,0.23706,-0.95337,-0.09937;
18:12:54.347,0.23804,-0.95044,-0.10693;
18:12:54.357,0.23877,-0.95142,-0.11011;
18:12:54.367,0.23633,-0.96240,-0.10718;
18:12:54.377,0.23730,-0.96875,-0.10352;
18:12:54.387,0.23413,-0.95972,-0.09863;
18:12:54.397,0.23169,-0.95386,-0.09058;
18:12:54.407,0.23364,-0.95923,-0.07690;
18:12:54.417,0.23145,-0.96143,-0.06055;
18:12:54.427,0.23682,-0.96240,-0.05957;
18:12:54.437,0.23730,-0.95776,-0.06519;
18:12:54.447,0.23486,-0.95996,-0.06470;
18:12:54.457,0.23145,-0.95117,-0.06396;
18:12:54.467,0.23584,-0.96143,-0.06445;
18:12:54.477,0.23730,-0.95850,-0.06421;
18:12:54.487,0.23682,-0.95215,-0.07349;
18:12:54.497,0.23291,-0.94312,-0.07324;
18:12:54.507,0.23242,-0.93604,-0.07300;
18:12:54.517,0.22437,-0.95093,-0.07788;
18:12:54.527,0.22559,-0.96436,-0.07666;
18:12:54.537,0.22803,-0.97266,-0.09253;
18:12:54.547,0.22607,-0.96362,-0.11035;
18:12:54.557,0.23096,-0.94873,-0.11035;
18:12:54.567,0.22656,-0.95386,-0.11792;
18:12:54.577,0.22827,-0.96313,-0.12598;
18:12:54.587,0.23315,-0.97339,-0.12183;
18:12:54.597,0.23486,-0.96948,-0.12500;
18:12:54.607,0.22852,-0.95435,-0.13940;
18:12:54.617,0.22559,-0.94580,-0.14673;
18:12:54.627,0.23193,-0.95435,-0.13281;
18:12:54.637,0.23999,-0.96167,-0.12622;
18:12:54.647,0.24194,-0.97070,-0.12329;
18:12:54.657,0.23389,-0.94556,-0.10205;
18:12:54.667,0.23804,-0.93750,-0.08350;
18:12:54.677,0.24097,-0.93921,-0.07739;
18:12:54.687,0.23804,-0.94604,-0.08301;
18:12:54.697,0.24243,-0.94897,-0.07739;
18:12:54.707,0.24023,-0.94580,-0.08179;
18:12:54.717,0.23047,-0.95093,-0.08984;
18:12:54.727,0.23120,-0.94971,-0.09692;
18:12:54.737,0.23413,-0.94189,-0.10132;
18:12:54.747,0.23560,-0.93262,-0.09741;
18:12:54.757,0.23413,-0.94873,-0.09595;
18:12:54.767,0.22388,-0.97949,-0.08765;
18:12:54.777,0.22363,-0.98462,-0.08911;
18:12:54.787,0.23022,-0.96387,-0.09717;
18:12:54.797,0.22754,-0.93237,-0.08154;
18:12:54.807,0.22461,-0.91406,-0.06470;
18:12:54.817,0.22046,-0.93066,-0.05737;
18:12:54.827,0.20386,-0.97974,-0.03809;
18:12:54.837,0.19385,-0.97681,-0.04248;
18:12:54.847,0.19019,-0.93896,-0.05225;
18:12:54.857,0.19556,-0.91577,-0.05933;
18:12:54.867,0.18408,-0.94043,-0.09204;
18:12:54.877,0.17798,-0.98120,-0.10669;
18:12:54.887,0.17969,-0.99438,-0.11353;
18:12:54.897,0.17114,-0.97168,-0.14868;
18:12:54.907,0.17480,-0.92749,-0.18994;
18:12:54.917,0.18506,-0.89429,-0.22388;
18:12:54.927,0.17920,-0.91626,-0.24048;
18:12:54.937,0.15259,-0.96313,-0.26270;
18:12:54.947,0.12671,-0.98828,-0.27661;
18:12:54.957,0.14014,-0.98926,-0.29297;
18:12:54.967,0.16284,-0.99316,-0.31519;
18:12:54.977,0.16284,-0.98242,-0.30542;
18:12:54.987,0.15991,-0.98511,-0.28247;
18:12:54.997,0.15991,-0.99634,-0.27295;
18:12:55.007,0.15381,-0.99170,-0.26318;
18:12:55.017,0.14941,-0.97876,-0.24414;
18:12:55.027,0.15137,-0.96826,-0.22754;
18:12:55.037,0.15552,-0.95215,-0.22778;
18:12:55.047,0.15967,-0.94775,-0.21387;
18:12:55.057,0.16064,-0.96313,-0.19580;
18:12:55.067,0.16406,-0.97852,-0.17871;
18:12:55.077,0.15991,-0.96680,-0.17358;
18:12:55.087,0.15332,-0.95923,-0.17065;
18:12:55.097,0.16187,-0.97144,-0.15796;
18:12:55.107,0.16235,-0.98120,-0.17236;
18:12:55.117,0.15845,-0.98682,-0.17480;
18:12:55.127,0.17188,-0.97485,-0.17847;
18:12:55.137,0.17822,-0.95117,-0.18994;
18:12:55.147,0.17969,-0.94287,-0.18921;
18:12:55.157,0.17017,-0.95947,-0.18994;
18:12:55.167,0.15381,-1.00342,-0.18237;
18:12:55.177,0.17554,-0.97412,-0.19409;
18:12:55.187,0.18286,-0.93311,-0.17578;
18:12:55.197,0.17065,-0.95508,-0.15088;
18:12:55.207,0.15454,-1.00513,-0.14331;
18:12:55.217,0.15552,-0.98315,-0.15234;
18:12:55.227,0.15063,-0.97632,-0.18701;
18:12:55.237,0.15723,-0.97925,-0.21851;
18:12:55.247,0.17651,-0.97607,-0.23267;
18:12:55.257,0.19092,-0.97437,-0.23950;
18:12:55.267,0.18579,-0.97046,-0.26489;
18:12:55.277,0.20117,-0.95166,-0.23657;
18:12:55.287,0.21802,-0.95410,-0.17188;
18:12:55.297,0.16064,-0.96875,-0.17822;
18:12:55.307,0.13794,-0.97534,-0.17627;
18:12:55.317,0.16943,-0.96582,-0.12305;
18:12:55.327,0.18188,-0.93555,-0.06519;
18:12:55.337,0.16748,-0.97217,-0.06641;
18:12:55.347,0.18555,-0.96631,-0.03784;
18:12:55.357,0.19189,-0.95483,-0.04004;
18:12:55.367,0.17822,-0.94043,-0.09204;
18:12:55.377,0.16919,-0.96265,-0.15088;
18:12:55.387,0.13257,-0.99243,-0.19995;
18:12:55.397,0.12744,-0.97729,-0.18262;
18:12:55.407,0.14111,-0.97168,-0.18604;
18:12:55.417,0.16333,-0.99634,-0.21680;
18:12:55.427,0.19287,-0.99854,-0.20264;
18:12:55.437,0.18848,-0.95288,-0.17358;
18:12:55.447,0.24048,-0.94067,-0.13257;
18:12:55.457,0.23877,-0.95898,-0.11182;
18:12:55.467,0.17920,-0.98291,-0.08179;
18:12:55.477,0.14282,-0.97070,-0.06982;
18:12:55.487,0.17725,-0.93164,-0.07837;
18:12:55.497,0.19141,-0.95728,-0.06226;
18:12:55.507,0.18677,-1.00488,-0.07935;
18:12:55.517,0.19214,-0.98535,-0.08813;
18:12:55.527,0.18359,-0.97607,-0.11523;
18:12:55.537,0.20361,-0.96411,-0.12427;
18:12:55.547,0.20996,-0.94995,-0.11206;
18:12:55.557,0.21021,-0.94946,-0.12207;
18:12:55.567,0.21362,-0.94653,-0.11768;
18:12:55.577,0.19214,-0.94409,-0.10547;
18:12:55.587,0.16699,-0.95166,-0.10962;
18:12:55.597,0.17017,-0.94580,-0.09204;
18:12:55.607,0.18555,-0.92871,-0.07764;
18:12:55.617,0.18774,-0.95435,-0.08936;
18:12:55.627,0.17261,-1.00269,-0.09717;
18:12:55.637,0.15625,-1.00269,-0.09668;
18:12:55.647,0.16260,-0.96655,-0.12036;
18:12:55.657,0.16821,-0.93994,-0.11792;
18:12:55.667,0.16162,-0.96899,-0.10449;
18:12:55.677,0.15991,-1.00635,-0.13306;
18:12:55.687,0.16333,-0.98608,-0.16284;
18:12:55.697,0.15674,-0.95435,-0.16528;
18:12:55.707,0.14673,-0.98218,-0.19678;
18:12:55.717,0.14673,-1.00562,-0.21753;
18:12:55.727,0.11816,-0.99023,-0.21997;
18:12:55.737,0.09741,-1.02856,-0.22046;
18:12:55.747,0.09961,-1.00366,-0.22876;
18:12:55.757,0.11133,-0.98804,-0.20361;
18:12:55.767,0.13037,-0.96021,-0.18164;
18:12:55.777,0.14722,-0.97510,-0.18506;
18:12:55.787,0.13794,-0.98584,-0.14673;
18:12:55.797,0.13721,-0.95435,-0.14355;
18:12:55.807,0.15308,-0.93213,-0.13403;
18:12:55.817,0.14771,-0.95728,-0.10767;
18:12:55.827,0.15405,-0.97681,-0.12207;
18:12:55.837,0.15601,-0.95630,-0.11548;
18:12:55.847,0.14038,-0.92896,-0.12622;
18:12:55.857,0.14087,-0.95776,-0.14380;
18:12:55.867,0.13916,-0.98022,-0.15015;
18:12:55.877,0.13745,-0.97046,-0.19678;
18:12:55.887,0.14087,-0.95679,-0.23486;
18:12:55.897,0.12744,-0.95630,-0.25488;
18:12:55.907,0.09912,-0.94971,-0.23950;
18:12:55.917,0.08325,-1.00293,-0.22681;
18:12:55.927,0.10693,-0.96387,-0.22827;
18:12:55.937,0.09985,-0.98340,-0.20654;
18:12:55.947,0.11450,-0.98315,-0.20093;
18:12:55.957,0.13135,-0.95776,-0.20020;
18:12:55.967,0.14404,-0.95825,-0.20288;
18:12:55.977,0.14893,-0.97070,-0.20483;
18:12:55.987,0.16260,-0.96997,-0.23193;
18:12:55.997,0.16455,-0.97876,-0.23755;
18:12:56.007,0.15063,-0.98340,-0.24292;
18:12:56.017,0.14380,-0.97803,-0.24463;
18:12:56.027,0.12964,-0.95728,-0.23706;
18:12:56.037,0.12109,-0.93091,-0.22290;
18:12:56.047,0.12231,-0.93579,-0.22827;
18:12:56.057,0.11304,-0.92578,-0.23022;
18:12:56.067,0.09961,-0.89673,-0.23584;
18:12:56.077,0.10864,-0.91357,-0.23022;
18:12:56.087,0.10522,-0.93213,-0.20801;
18:12:56.097,0.10425,-0.91382,-0.20117;
18:12:56.107,0.10327,-0.90527,-0.18262;
18:12:56.117,0.08228,-0.93433,-0.17090;
18:12:56.127,0.04053,-0.95825,-0.14355;
18:12:56.137,0.02710,-0.97266,-0.11963;
18:12:56.147,0.02588,-0.98828,-0.12549;
18:12:56.157,0.03760,-0.99463,-0.13623;
18:12:56.167,0.04712,-0.98145,-0.16064;
18:12:56.177,0.03589,-0.97021,-0.18384;
18:12:56.187,0.01343,-0.97363,-0.17456;
18:12:56.197,0.00024,-0.99243,-0.13965;
18:12:56.207,0.00146,-0.97241,-0.08716;
18:12:56.217,0.00244,-0.95215,-0.05981;
18:12:56.227,-0.01367,-0.96460,-0.03735;
18:12:56.237,-0.02026,-0.98096,-0.04785;
18:12:56.247,-0.02026,-0.99365,-0.10425;
18:12:56.257,-0.02393,-1.01831,-0.19678;
18:12:56.267,-0.02734,-1.03198,-0.29248;
18:12:56.277,0.00732,-0.95483,-0.39771;
18:12:56.287,0.04346,-0.94775,-0.38037;
18:12:56.297,0.09180,-0.96875,-0.34058;
18:12:56.307,0.09668,-1.01563,-0.22290;
18:12:56.317,0.07593,-0.93823,-0.16724;
18:12:56.327,0.10522,-0.93896,-0.13965;
18:12:56.337,0.11230,-0.97168,-0.15161;
18:12:56.347,0.09180,-0.92822,-0.20752;
18:12:56.357,0.09619,-0.91870,-0.25781;
18:12:56.367,0.08789,-0.95117,-0.29956;
18:12:56.377,0.07544,-0.96558,-0.33130;
18:12:56.387,0.07813,-0.95825,-0.33301;
18:12:56.397,0.08252,-0.94238,-0.34009;
18:12:56.407,0.08765,-0.92773,-0.33716;
18:12:56.417,0.08252,-0.92847,-0.32715;
18:12:56.427,0.07275,-0.92700,-0.31860;
18:12:56.437,0.06616,-0.96460,-0.29541;
18:12:56.447,0.05762,-0.96631,-0.25952;
18:12:56.457,0.06152,-0.95239,-0.23853;
18:12:56.467,0.06079,-0.96289,-0.23096;
18:12:56.477,0.05493,-0.95728,-0.26270;
18:12:56.487,0.03955,-0.96094,-0.27319;
18:12:56.497,0.03442,-0.96777,-0.28369;
18:12:56.507,0.04077,-0.96802,-0.29541;
18:12:56.517,0.04199,-0.95435,-0.28687;
18:12:56.527,0.04492,-0.94629,-0.28101;
18:12:56.537,0.03564,-0.92676,-0.28931;
18:12:56.547,0.01904,-0.93115,-0.28833;
18:12:56.557,0.00806,-0.93555,-0.28687;
18:12:56.567,0.00439,-0.96387,-0.28589;
18:12:56.577,0.01392,-0.99023,-0.26807;
18:12:56.587,0.03369,-0.96631,-0.26563;
18:12:56.597,0.03296,-0.97412,-0.25439;
18:12:56.607,0.03223,-0.96680,-0.24854;
18:12:56.617,0.03467,-0.94385,-0.24243;
18:12:56.627,0.02759,-0.94434,-0.25635;
18:12:56.637,0.00928,-0.96167,-0.27075;
18:12:56.647,-0.01367,-0.98462,-0.25122;
18:12:56.657,-0.03125,-0.98706,-0.23608;
18:12:56.667,-0.02393,-0.99170,-0.24609;
18:12:56.677,-0.04126,-0.97534,-0.24976;
18:12:56.687,-0.07593,-0.97192,-0.26978;
18:12:56.697,-0.08496,-0.99146,-0.26758;
18:12:56.707,-0.07520,-1.00830,-0.27734;
18:12:56.717,-0.07080,-0.99829,-0.26270;
18:12:56.727,-0.05518,-0.99292,-0.24292;
18:12:56.737,-0.04907,-0.98853,-0.24072;
18:12:56.747,-0.03906,-0.99438,-0.24048;
18:12:56.757,-0.04883,-1.01807,-0.24536;
18:12:56.767,-0.08228,-1.00977,-0.24243;
18:12:56.777,-0.08789,-0.98511,-0.25366;
18:12:56.787,-0.09790,-0.98291,-0.26123;
18:12:56.797,-0.11572,-0.97046,-0.26685;
18:12:56.807,-0.10327,-0.96802,-0.26465;
18:12:56.817,-0.08398,-0.98657,-0.24194;
18:12:56.827,-0.10205,-0.97998,-0.22632;
18:12:56.837,-0.10474,-0.95020,-0.21411;
18:12:56.847,-0.10083,-0.95093,-0.20630;
18:12:56.857,-0.09229,-0.97168,-0.21826;
18:12:56.867,-0.15015,-0.96436,-0.22461;
18:12:56.877,-0.20044,-0.95313,-0.24316;
18:12:56.887,-0.23511,-0.93652,-0.24902;
18:12:56.897,-0.25635,-0.90405,-0.22900;
18:12:56.907,-0.24805,-0.89624,-0.22900;
18:12:56.917,-0.24707,-0.91260,-0.22827;
18:12:56.927,-0.25684,-0.91504,-0.24341;
18:12:56.937,-0.26343,-0.94727,-0.24854;
18:12:56.947,-0.23975,-0.90942,-0.25415;
18:12:56.957,-0.20923,-0.87207,-0.26904;
18:12:56.967,-0.22949,-0.90430,-0.22070;
18:12:56.977,-0.25439,-0.89673,-0.16821;
18:12:56.987,-0.27979,-0.85132,-0.16650;
18:12:56.997,-0.32153,-0.88281,-0.20728;
18:12:57.007,-0.33081,-0.89526,-0.23584;
18:12:57.017,-0.34521,-0.85522,-0.23071;
18:12:57.027,-0.36743,-0.87622,-0.19971;
18:12:57.037,-0.37720,-0.87402,-0.18237;
18:12:57.047,-0.38940,-0.85596,-0.18774;
18:12:57.057,-0.41357,-0.87451,-0.14990;
18:12:57.067,-0.40503,-0.87134,-0.13721;
18:12:57.077,-0.39307,-0.87939,-0.11157;
18:12:57.087,-0.40112,-0.89111,-0.09277;
18:12:57.097,-0.40820,-0.85913,-0.15137;
18:12:57.107,-0.43506,-0.84644,-0.09277;
18:12:57.117,-0.44971,-0.84521,-0.11426;
18:12:57.127,-0.40918,-0.84253,-0.15918;
18:12:57.137,-0.40967,-0.85498,-0.10449;
18:12:57.147,-0.45898,-0.82031,-0.06470;
18:12:57.157,-0.47388,-0.87061,-0.10229;
18:12:57.167,-0.43066,-0.87671,-0.15527;
18:12:57.177,-0.42969,-0.82471,-0.14111;
18:12:57.187,-0.45752,-0.82300,-0.13159;
18:12:57.197,-0.46899,-0.80859,-0.15942;
18:12:57.207,-0.50024,-0.80493,-0.14893;
18:12:57.217,-0.51733,-0.83325,-0.16895;
18:12:57.227,-0.56274,-0.79761,-0.15601;
18:12:57.237,-0.54663,-0.77808,-0.16724;
18:12:57.247,-0.57837,-0.77295,-0.12183;
18:12:57.257,-0.56030,-0.78564,-0.10864;
18:12:57.267,-0.52930,-0.77856,-0.08984;
18:12:57.277,-0.58325,-0.76001,-0.03857;
18:12:57.287,-0.54639,-0.77881,-0.08398;
18:12:57.297,-0.56128,-0.84595,-0.06299;
18:12:57.307,-0.61060,-0.75513,-0.05762;
18:12:57.317,-0.60474,-0.71313,-0.12134;
18:12:57.327,-0.59692,-0.77075,-0.13745;
18:12:57.337,-0.62158,-0.73267,-0.10596;
18:12:57.347,-0.60327,-0.73218,-0.10645;
18:12:57.357,-0.62012,-0.76367,-0.05225;
18:12:57.367,-0.63623,-0.77466,-0.00781;
18:12:57.377,-0.64429,-0.75049,0.00415;
18:12:57.387,-0.66577,-0.76660,-0.03638;
18:12:57.397,-0.71484,-0.72607,-0.11670;
18:12:57.407,-0.69409,-0.69653,-0.22656;
18:12:57.417,-0.67139,-0.64600,-0.25781;
18:12:57.427,-0.70874,-0.64746,-0.13916;
18:12:57.437,-0.72827,-0.64697,-0.11426;
18:12:57.447,-0.76123,-0.64233,-0.09326;
18:12:57.457,-0.76245,-0.63672,-0.09961;
18:12:57.467,-0.76123,-0.63770,-0.10229;
18:12:57.477,-0.76611,-0.61890,-0.10376;
18:12:57.487,-0.76172,-0.60913,-0.13550;
18:12:57.497,-0.76880,-0.59839,-0.14624;
18:12:57.507,-0.75732,-0.61279,-0.15039;
18:12:57.517,-0.78027,-0.62207,-0.08789;
18:12:57.527,-0.79150,-0.61816,-0.04150;
18:12:57.537,-0.76196,-0.64648,-0.04932;
18:12:57.547,-0.76270,-0.63086,-0.03564;
18:12:57.557,-0.75488,-0.63037,-0.03613;
18:12:57.567,-0.76953,-0.61572,-0.01880;
18:12:57.577,-0.76538,-0.61182,-0.02808;
18:12:57.587,-0.76147,-0.60962,-0.01489;
18:12:57.597,-0.75635,-0.61255,0.00439;
18:12:57.607,-0.76489,-0.65601,0.02295;
18:12:57.617,-0.79102,-0.64966,0.01489;
18:12:57.627,-0.79785,-0.63599,-0.07007;
18:12:57.637,-0.82666,-0.63550,-0.09058;
18:12:57.647,-0.85840,-0.57544,-0.11255;
18:12:57.657,-0.86108,-0.57104,-0.14600;
18:12:57.667,-0.80981,-0.56396,-0.20630;
18:12:57.677,-0.81421,-0.59229,-0.20972;
18:12:57.687,-0.78955,-0.60840,-0.19507;
18:12:57.697,-0.75928,-0.61426,-0.17969;
18:12:57.707,-0.75854,-0.61157,-0.15479;
18:12:57.717,-0.74390,-0.59839,-0.19409;
18:12:57.727,-0.75488,-0.61230,-0.20898;
18:12:57.737,-0.74609,-0.62061,-0.18945;
18:12:57.747,-0.74658,-0.60352,-0.17822;
18:12:57.757,-0.73950,-0.61108,-0.16577;
18:12:57.767,-0.74561,-0.62402,-0.12744;
18:12:57.777,-0.74854,-0.61450,-0.11865;
18:12:57.787,-0.74634,-0.61597,-0.14111;
18:12:57.797,-0.74023,-0.62915,-0.14014;
18:12:57.807,-0.73242,-0.62451,-0.13574;
18:12:57.817,-0.74316,-0.60010,-0.12964;
18:12:57.827,-0.73779,-0.61084,-0.14453;
18:12:57.837,-0.75391,-0.64160,-0.10767;
18:12:57.847,-0.76807,-0.61719,-0.10620;
18:12:57.857,-0.77710,-0.60400,-0.14282;
18:12:57.867,-0.76367,-0.61499,-0.13428;
18:12:57.877,-0.76587,-0.59863,-0.11670;
18:12:57.887,-0.76221,-0.61182,-0.10645;
18:12:57.897,-0.77832,-0.61304,-0.07397;
18:12:57.907,-0.79858,-0.59570,-0.06006;
18:12:57.917,-0.78979,-0.59155,-0.04346;
18:12:57.927,-0.78125,-0.59473,-0.03394;
18:12:57.937,-0.78442,-0.60229,-0.03906;
18:12:57.947,-0.81152,-0.58911,-0.05273;
18:12:57.957,-0.82056,-0.58374,-0.06421;
18:12:57.967,-0.81982,-0.57202,-0.05542;
18:12:57.977,-0.80688,-0.58301,-0.03931;
18:12:57.987,-0.80225,-0.59595,-0.02173;
18:12:57.997,-0.80127,-0.59180,-0.02612;
18:12:58.007,-0.80029,-0.57446,-0.05347;
18:12:58.017,-0.81714,-0.56274,-0.10815;
18:12:58.027,-0.82715,-0.55273,-0.18042;
18:12:58.037,-0.84448,-0.53662,-0.24463;
18:12:58.047,-0.85254,-0.51514,-0.28516;
18:12:58.057,-0.82788,-0.52173,-0.28955;
18:12:58.067,-0.77930,-0.53857,-0.26123;
18:12:58.077,-0.75562,-0.54663,-0.22583;
18:12:58.087,-0.75171,-0.56055,-0.20386;
18:12:58.097,-0.74854,-0.55884,-0.20532;
18:12:58.107,-0.75415,-0.55420,-0.21484;
18:12:58.117,-0.75879,-0.55029,-0.21411;
18:12:58.127,-0.77759,-0.55615,-0.19238;
18:12:58.137,-0.76025,-0.58618,-0.04077;
18:12:58.147,-0.76001,-0.62036,-0.13330;
18:12:58.157,-0.75513,-0.60400,-0.24146;
18:12:58.167,-0.76001,-0.59253,-0.37256;
18:12:58.177,-0.74365,-0.54834,-0.47241;
18:12:58.187,-0.73340,-0.51636,-0.46606;
18:12:58.197,-0.72510,-0.55640,-0.37793;
18:12:58.207,-0.73608,-0.61450,-0.26953;
18:12:58.217,-0.73340,-0.62402,-0.19922;
18:12:58.227,-0.71484,-0.63208,-0.17944;
18:12:58.237,-0.75171,-0.61377,-0.17603;
18:12:58.247,-0.74927,-0.59521,-0.19409;
18:12:58.257,-0.75439,-0.60571,-0.20947;
18:12:58.267,-0.76050,-0.60962,-0.24438;
18:12:58.277,-0.76172,-0.61743,-0.30493;
18:12:58.287,-0.75903,-0.60962,-0.36768;
18:12:58.297,-0.74341,-0.59814,-0.40698;
18:12:58.307,-0.75464,-0.59229,-0.41357;
18:12:58.317,-0.73853,-0.61646,-0.37793;
18:12:58.327,-0.71631,-0.64063,-0.31543;
18:12:58.337,-0.72778,-0.64600,-0.24414;
18:12:58.347,-0.73828,-0.64697,-0.20142;
18:12:58.357,-0.74829,-0.64258,-0.18164;
18:12:58.367,-0.75854,-0.64136,-0.18237;
18:12:58.377,-0.75952,-0.63208,-0.19189;
18:12:58.387,-0.76343,-0.62573,-0.19653;
18:12:58.397,-0.76709,-0.62329,-0.20508;
18:12:58.407,-0.76758,-0.63184,-0.22339;
18:12:58.417,-0.76514,-0.63208,-0.26514;
18:12:58.427,-0.76221,-0.62695,-0.29199;
18:12:58.437,-0.75293,-0.62427,-0.28027;
18:12:58.447,-0.73853,-0.62354,-0.19385;
18:12:58.457,-0.74536,-0.61987,-0.15625;
18:12:58.467,-0.75098,-0.61572,-0.13721;
18:12:58.477,-0.74512,-0.61963,-0.13184;
18:12:58.487,-0.74121,-0.61792,-0.15015;
18:12:58.497,-0.73706,-0.62012,-0.17383;
18:12:58.507,-0.73071,-0.61816,-0.19727;
18:12:58.517,-0.73120,-0.61816,-0.21362;
18:12:58.527,-0.73242,-0.61963,-0.21851;
18:12:58.537,-0.73438,-0.61841,-0.22241;
18:12:58.547,-0.74805,-0.62012,-0.21826;
18:12:58.557,-0.73877,-0.62549,-0.21655;
18:12:58.567,-0.72925,-0.62964,-0.20605;
18:12:58.577,-0.72583,-0.62817,-0.19092;
18:12:58.587,-0.72803,-0.63306,-0.17798;
18:12:58.597,-0.72949,-0.63599,-0.17383;
18:12:58.607,-0.72803,-0.64258,-0.18848;
18:12:58.617,-0.72241,-0.64111,-0.21143;
18:12:58.627,-0.71899,-0.64087,-0.23267;
18:12:58.637,-0.71973,-0.64087,-0.25854;
18:12:58.647,-0.72632,-0.63721,-0.30029;
18:12:58.657,-0.75073,-0.63672,-0.34277;
18:12:58.667,-0.74194,-0.63232,-0.34790;
18:12:58.677,-0.73267,-0.64185,-0.31104;
18:12:58.687,-0.71997,-0.64258,-0.27515;
18:12:58.697,-0.71167,-0.63696,-0.24341;
18:12:58.707,-0.70898,-0.64648,-0.22925;
18:12:58.717,-0.70117,-0.64819,-0.23853;
18:12:58.727,-0.70044,-0.64063,-0.25049;
18:12:58.737,-0.69263,-0.63940,-0.25635;
18:12:58.747,-0.70386,-0.63818,-0.25903;
18:12:58.757,-0.71021,-0.64355,-0.26465;
18:12:58.767,-0.71191,-0.63989,-0.30737;
18:12:58.777,-0.71875,-0.64233,-0.34546;
18:12:58.787,-0.71021,-0.63013,-0.34888;
18:12:58.797,-0.70117,-0.63428,-0.32520;
18:12:58.807,-0.67896,-0.62476,-0.25928;
18:12:58.817,-0.68115,-0.64087,-0.22656;
18:12:58.827,-0.68286,-0.65674,-0.22803;
18:12:58.837,-0.67017,-0.63940,-0.24487;
18:12:58.847,-0.68286,-0.64868,-0.26147;
18:12:58.857,-0.67285,-0.64355,-0.28662;
18:12:58.867,-0.66968,-0.64502,-0.27368;
18:12:58.877,-0.67505,-0.64941,-0.26221;
18:12:58.887,-0.67163,-0.64307,-0.24463;
18:12:58.897,-0.66138,-0.63525,-0.25854;
18:12:58.907,-0.65039,-0.64380,-0.22314;
18:12:58.917,-0.65308,-0.63525,-0.19751;
18:12:58.927,-0.67285,-0.63281,-0.19434;
18:12:58.937,-0.69824,-0.62988,-0.23022;
18:12:58.947,-0.72314,-0.64258,-0.30859;
18:12:58.957,-0.74414,-0.64136,-0.40112;
18:12:58.967,-0.72656,-0.62109,-0.46753;
18:12:58.977,-0.72485,-0.60767,-0.48608;
18:12:58.987,-0.71631,-0.59717,-0.43604;
18:12:58.997,-0.70801,-0.60620,-0.32788;
18:12:59.007,-0.72241,-0.61670,-0.24219;
18:12:59.017,-0.72217,-0.64038,-0.22705;
18:12:59.027,-0.72900,-0.63745,-0.25488;
18:12:59.037,-0.71289,-0.62524,-0.28931;
18:12:59.047,-0.70215,-0.63306,-0.29541;
18:12:59.057,-0.70459,-0.63452,-0.28198;
18:12:59.067,-0.70093,-0.63745,-0.27002;
18:12:59.077,-0.70142,-0.63403,-0.26196;
18:12:59.087,-0.71509,-0.63013,-0.27368;
18:12:59.097,-0.72119,-0.61450,-0.30103;
18:12:59.107,-0.72192,-0.60254,-0.29639;
18:12:59.117,-0.72534,-0.61230,-0.27344;
18:12:59.127,-0.71973,-0.62061,-0.25244;
18:12:59.137,-0.72876,-0.62280,-0.25610;
18:12:59.147,-0.74048,-0.61084,-0.29395;
18:12:59.157,-0.74487,-0.60815,-0.31543;
18:12:59.167,-0.73804,-0.58643,-0.31616;
18:12:59.177,-0.74658,-0.60620,-0.29004;
18:12:59.187,-0.76392,-0.62549,-0.30225;
18:12:59.197,-0.75317,-0.58862,-0.35425;
18:12:59.207,-0.75049,-0.60425,-0.35254;
18:12:59.217,-0.75000,-0.60156,-0.32324;
18:12:59.227,-0.75073,-0.60083,-0.29541;
18:12:59.237,-0.75562,-0.61108,-0.30249;
18:12:59.247,-0.75269,-0.61157,-0.30981;
18:12:59.257,-0.74219,-0.60767,-0.28516;
18:12:59.267,-0.72827,-0.60571,-0.24365;
18:12:59.277,-0.71631,-0.61182,-0.21313;
18:12:59.287,-0.70435,-0.61816,-0.21729;
18:12:59.297,-0.69946,-0.62524,-0.23755;
18:12:59.307,-0.69531,-0.62402,-0.26245;
18:12:59.317,-0.69824,-0.62354,-0.27002;
18:12:59.327,-0.70874,-0.62256,-0.25928;
18:12:59.337,-0.72070,-0.62573,-0.24731;
18:12:59.347,-0.73438,-0.62817,-0.26025;
18:12:59.357,-0.74072,-0.62573,-0.27441;
18:12:59.367,-0.73950,-0.62402,-0.27417;
18:12:59.377,-0.73853,-0.62402,-0.26172;
18:12:59.387,-0.74194,-0.62231,-0.25122;
18:12:59.397,-0.74097,-0.61694,-0.24072;
18:12:59.407,-0.73120,-0.61938,-0.22900;
18:12:59.417,-0.72266,-0.62524,-0.22412;
18:12:59.427,-0.72266,-0.62378,-0.22510;
18:12:59.437,-0.72437,-0.62549,-0.27173;
18:12:59.447,-0.74463,-0.62622,-0.29321;
18:12:59.457,-0.74780,-0.63379,-0.31860;
18:12:59.467,-0.74316,-0.63013,-0.31689;
18:12:59.477,-0.73706,-0.62305,-0.28735;
18:12:59.487,-0.73511,-0.61914,-0.24829;
18:12:59.497,-0.72949,-0.61841,-0.22266;
18:12:59.507,-0.73120,-0.61719,-0.21460;
18:12:59.517,-0.72754,-0.62036,-0.22095;
18:12:59.527,-0.71997,-0.63037,-0.23096;
18:12:59.537,-0.71680,-0.63354,-0.22974;
18:12:59.547,-0.71484,-0.62891,-0.23071;
18:12:59.557,-0.70874,-0.63379,-0.23047;
18:12:59.567,-0.70264,-0.64478,-0.23511;
18:12:59.577,-0.69995,-0.64136,-0.24512;
18:12:59.587,-0.69775,-0.63623,-0.24023;
18:12:59.597,-0.70142,-0.63159,-0.22925;
18:12:59.607,-0.70532,-0.62866,-0.22534;
18:12:59.617,-0.70508,-0.63354,-0.21362;
18:12:59.627,-0.70361,-0.63354,-0.21216;
18:12:59.637,-0.70508,-0.63574,-0.21509;
18:12:59.647,-0.71094,-0.63989,-0.22534;
18:12:59.657,-0.74072,-0.63770,-0.29590;
18:12:59.667,-0.74805,-0.62500,-0.25684;
18:12:59.677,-0.73608,-0.62256,-0.20898;
18:12:59.687,-0.73950,-0.63281,-0.22412;
18:12:59.697,-0.73218,-0.63403,-0.24878;
18:12:59.707,-0.72778,-0.63818,-0.26270;
18:12:59.717,-0.71826,-0.63916,-0.27075;
18:12:59.727,-0.71704,-0.63354,-0.26855;
18:12:59.737,-0.71582,-0.63696,-0.26343;
18:12:59.747,-0.71265,-0.64331,-0.25171;
18:12:59.757,-0.70972,-0.64233,-0.23389;
18:12:59.767,-0.70288,-0.63892,-0.22363;
18:12:59.777,-0.70313,-0.63501,-0.22339;
18:12:59.787,-0.70654,-0.63574,-0.23047;
18:12:59.797,-0.70532,-0.65625,-0.24243;
18:12:59.807,-0.70044,-0.64990,-0.25903;
18:12:59.817,-0.69556,-0.63428,-0.26221;
18:12:59.827,-0.69458,-0.63696,-0.25562;
18:12:59.837,-0.69629,-0.64282,-0.24707;
18:12:59.847,-0.69580,-0.63086,-0.25610;
18:12:59.857,-0.70361,-0.63843,-0.26855;
18:12:59.867,-0.70703,-0.64600,-0.26733;
18:12:59.877,-0.70190,-0.62915,-0.25928;
18:12:59.887,-0.70801,-0.63330,-0.24268;
18:12:59.897,-0.70679,-0.63745,-0.22974;
18:12:59.907,-0.70044,-0.63086,-0.22168;
18:12:59.917,-0.70288,-0.64038,-0.22437;
18:12:59.927,-0.70923,-0.63550,-0.24829;
18:12:59.937,-0.71265,-0.62598,-0.27319;
18:12:59.947,-0.70947,-0.63135,-0.27783;
18:12:59.957,-0.70605,-0.62646,-0.25952;
18:12:59.967,-0.70752,-0.62988,-0.24048;
18:12:59.977,-0.70166,-0.62744,-0.23657;
18:12:59.987,-0.69702,-0.62427,-0.24170;
18:12:59.997,-0.70654,-0.62378,-0.25806;
18:13:00.007,-0.71021,-0.62500,-0.26904;
18:13:00.017,-0.70923,-0.62476,-0.26685;
18:13:00.027,-0.70532,-0.62427,-0.24585;
18:13:00.037,-0.70801,-0.62305,-0.24292;
18:13:00.047,-0.71533,-0.62915,-0.25952;
18:13:00.057,-0.71558,-0.63574,-0.29541;
18:13:00.067,-0.71729,-0.62964,-0.32104;
18:13:00.077,-0.71094,-0.62769,-0.31323;
18:13:00.087,-0.71045,-0.62744,-0.29297;
18:13:00.097,-0.70947,-0.62598,-0.26611;
18:13:00.107,-0.71240,-0.63086,-0.25049;
18:13:00.117,-0.71387,-0.62988,-0.24121;
18:13:00.127,-0.72339,-0.62769,-0.25732;
18:13:00.137,-0.73853,-0.63184,-0.29736;
18:13:00.147,-0.73755,-0.63159,-0.32300;
18:13:00.157,-0.73169,-0.63135,-0.32153;
18:13:00.167,-0.72852,-0.62744,-0.27905;
18:13:00.177,-0.72754,-0.62573,-0.23657;
18:13:00.187,-0.72583,-0.63257,-0.22729;
18:13:00.197,-0.73022,-0.64038,-0.23950;
18:13:00.207,-0.71826,-0.63721,-0.26465;
18:13:00.217,-0.71411,-0.63281,-0.26416;
18:13:00.227,-0.71655,-0.63428,-0.24463;
18:13:00.237,-0.71826,-0.63525,-0.23267;
18:13:00.247,-0.71558,-0.63965,-0.24414;
18:13:00.257,-0.71826,-0.64209,-0.26025;
18:13:00.267,-0.71631,-0.63843,-0.26709;
18:13:00.277,-0.71460,-0.63647,-0.25586;
18:13:00.287,-0.71338,-0.63623,-0.23413;
18:13:00.297,-0.71655,-0.63306,-0.22632;
18:13:00.307,-0.71899,-0.63477,-0.23071;
18:13:00.317,-0.71680,-0.63892,-0.23120;
18:13:00.327,-0.71436,-0.63794,-0.23486;
18:13:00.337,-0.71069,-0.63330,-0.23853;
18:13:00.347,-0.70947,-0.63599,-0.23682;
18:13:00.357,-0.70898,-0.63599,-0.23511;
18:13:00.367,-0.71045,-0.63525,-0.24072;
18:13:00.377,-0.71069,-0.63281,-0.23950;
18:13:00.387,-0.70850,-0.62842,-0.22925;
18:13:00.397,-0.70801,-0.62842,-0.21973;
18:13:00.407,-0.70557,-0.62305,-0.20337;
18:13:00.417,-0.70630,-0.61108,-0.18799;
18:13:00.427,-0.70142,-0.63037,-0.18164;
18:13:00.437,-0.71191,-0.65454,-0.17627;
18:13:00.447,-0.72388,-0.63501,-0.25049;
18:13:00.457,-0.73120,-0.62695,-0.26465;
18:13:00.467,-0.74219,-0.63110,-0.24927;
18:13:00.477,-0.74414,-0.62817,-0.25342;
18:13:00.487,-0.75708,-0.62695,-0.28564;
18:13:00.497,-0.75879,-0.62231,-0.29590;
18:13:00.507,-0.75684,-0.62256,-0.28369;
18:13:00.517,-0.75269,-0.62793,-0.26001;
18:13:00.527,-0.74243,-0.63037,-0.25220;
18:13:00.537,-0.72583,-0.64746,-0.25122;
18:13:00.547,-0.72070,-0.65796,-0.25244;
18:13:00.557,-0.72925,-0.63843,-0.27051;
18:13:00.567,-0.72217,-0.62744,-0.27417;
18:13:00.577,-0.71997,-0.62500,-0.27686;
18:13:00.587,-0.71948,-0.61914,-0.28003;
18:13:00.597,-0.71802,-0.61597,-0.27441;
18:13:00.607,-0.70947,-0.60669,-0.27246;
18:13:00.617,-0.70264,-0.61279,-0.27148;
18:13:00.627,-0.69702,-0.62695,-0.27734;
18:13:00.637,-0.70679,-0.60840,-0.28833;
18:13:00.647,-0.72852,-0.58911,-0.29565;
18:13:00.657,-0.70776,-0.60889,-0.28271;
18:13:00.667,-0.69141,-0.63037,-0.27832;
18:13:00.677,-0.70093,-0.61987,-0.28516;
18:13:00.687,-0.71240,-0.60742,-0.29858;
18:13:00.697,-0.72241,-0.60913,-0.31787;
18:13:00.707,-0.73804,-0.59570,-0.32495;
18:13:00.717,-0.71387,-0.59473,-0.34009;
18:13:00.727,-0.68481,-0.58228,-0.33838;
18:13:00.737,-0.75220,-0.54980,-0.32886;
18:13:00.747,-0.76416,-0.56055,-0.33447;
18:13:00.757,-0.74316,-0.57178,-0.34106;
18:13:00.767,-0.75781,-0.56055,-0.34937;
18:13:00.777,-0.74634,-0.53955,-0.35791;
18:13:00.787,-0.74316,-0.52002,-0.36499;
18:13:00.797,-0.74707,-0.51660,-0.35449;
18:13:00.807,-0.74878,-0.51978,-0.33081;
18:13:00.817,-0.74878,-0.51514,-0.31055;
18:13:00.827,-0.78735,-0.50317,-0.30615;
18:13:00.837,-0.80957,-0.49170,-0.30566;
18:13:00.847,-0.82202,-0.48682,-0.32373;
18:13:00.857,-0.84351,-0.48096,-0.36279;
18:13:00.867,-0.83423,-0.47852,-0.40308;
18:13:00.877,-0.83496,-0.47485,-0.43994;
18:13:00.887,-0.84717,-0.44897,-0.46143;
18:13:00.897,-0.84692,-0.43677,-0.43555;
18:13:00.907,-0.84009,-0.45752,-0.38965;
18:13:00.917,-0.83594,-0.46533,-0.35498;
18:13:00.927,-0.82104,-0.45581,-0.33179;
18:13:00.937,-0.81030,-0.45459,-0.31665;
18:13:00.947,-0.80737,-0.45239,-0.31396;
18:13:00.957,-0.79907,-0.44458,-0.32129;
18:13:00.967,-0.80933,-0.42700,-0.34766;
18:13:00.977,-0.81323,-0.42651,-0.39111;
18:13:00.987,-0.78467,-0.42969,-0.41626;
18:13:00.997,-0.76563,-0.41187,-0.41309;
18:13:01.007,-0.77173,-0.41284,-0.36108;
18:13:01.017,-0.77588,-0.42993,-0.27612;
18:13:01.027,-0.77710,-0.44775,-0.21045;
18:13:01.037,-0.79834,-0.45337,-0.19043;
18:13:01.047,-0.82300,-0.44116,-0.21802;
18:13:01.057,-0.83887,-0.40894,-0.28638;
18:13:01.067,-0.84570,-0.37744,-0.34302;
18:13:01.077,-0.86182,-0.33813,-0.35913;
18:13:01.087,-0.84497,-0.35010,-0.35205;
18:13:01.097,-0.82690,-0.37842,-0.34033;
18:13:01.107,-0.82690,-0.38208,-0.32690;
18:13:01.117,-0.83936,-0.37158,-0.32666;
18:13:01.127,-0.86084,-0.36255,-0.33569;
18:13:01.137,-0.87329,-0.34351,-0.35181;
18:13:01.147,-0.88086,-0.32104,-0.37207;
18:13:01.157,-0.89746,-0.31812,-0.39380;
18:13:01.167,-0.90137,-0.31567,-0.41577;
18:13:01.177,-0.88770,-0.30933,-0.42407;
18:13:01.187,-0.87842,-0.31494,-0.41821;
18:13:01.197,-0.87598,-0.31836,-0.41895;
18:13:01.207,-0.89160,-0.28687,-0.45996;
18:13:01.217,-0.89160,-0.29175,-0.49463;
18:13:01.227,-0.90894,-0.27661,-0.52246;
18:13:01.237,-0.86890,-0.30640,-0.38086;
18:13:01.247,-0.89575,-0.34180,-0.26440;
18:13:01.257,-0.94385,-0.31152,-0.20996;
18:13:01.267,-0.97192,-0.30566,-0.10767;
18:13:01.277,-0.98340,-0.35498,-0.08716;
18:13:01.287,-0.98047,-0.35083,-0.16528;
18:13:01.297,-0.93555,-0.34790,-0.27222;
18:13:01.307,-0.87915,-0.33423,-0.40723;
18:13:01.317,-0.84668,-0.30371,-0.46826;
18:13:01.327,-0.85986,-0.25952,-0.45801;
18:13:01.337,-0.86499,-0.26636,-0.44116;
18:13:01.347,-0.84058,-0.32373,-0.44482;
18:13:01.357,-0.82446,-0.33960,-0.50049;
18:13:01.367,-0.81689,-0.29419,-0.54370;
18:13:01.377,-0.85059,-0.24609,-0.51343;
18:13:01.387,-0.89160,-0.24878,-0.47461;
18:13:01.397,-0.88745,-0.23999,-0.46313;
18:13:01.407,-0.82471,-0.23242,-0.53809;
18:13:01.417,-0.74023,-0.21899,-0.56592;
18:13:01.427,-0.73169,-0.20020,-0.52686;
18:13:01.437,-0.78149,-0.15894,-0.52124;
18:13:01.447,-0.77563,-0.22192,-0.40942;
18:13:01.457,-0.86548,-0.31152,-0.35327;
18:13:01.467,-0.87134,-0.37598,-0.21118;
18:13:01.477,-0.90649,-0.40820,-0.08228;
18:13:01.487,-0.93066,-0.39990,-0.07300;
18:13:01.497,-0.84961,-0.37036,-0.00830;
18:13:01.507,-0.81055,-0.46021,-0.03760;
18:13:01.517,-0.77100,-0.60400,-0.04370;
18:13:01.527,-0.79395,-0.53784,-0.22095;
18:13:01.537,-0.74365,-0.48364,-0.27661;
18:13:01.547,-0.83105,-0.41870,-0.30127;
18:13:01.557,-0.88354,-0.33765,-0.44360;
18:13:01.567,-0.90576,-0.28662,-0.46997;
18:13:01.577,-1.00049,-0.25146,-0.53027;
18:13:01.587,-0.92114,-0.26294,-0.58813;
18:13:01.597,-0.87720,-0.26807,-0.57617;
18:13:01.607,-0.82666,-0.31055,-0.54834;
18:13:01.617,-0.76563,-0.34619,-0.52734;
18:13:01.627,-0.72925,-0.36475,-0.54395;
18:13:01.637,-0.70190,-0.35620,-0.55737;
18:13:01.647,-0.71948,-0.36011,-0.57056;
18:13:01.657,-0.76392,-0.34521,-0.57471;
18:13:01.667,-0.79541,-0.28027,-0.54419;
18:13:01.677,-0.84375,-0.28369,-0.44751;
18:13:01.687,-0.87036,-0.29565,-0.41479;
18:13:01.697,-0.84082,-0.32910,-0.32031;
18:13:01.707,-0.87817,-0.37866,-0.24121;
18:13:01.717,-0.89111,-0.46411,-0.23926;
18:13:01.727,-0.77612,-0.41772,-0.17651;
18:13:01.737,-0.84985,-0.37720,-0.27637;
18:13:01.747,-0.91235,-0.43262,-0.35107;
18:13:01.757,-0.89160,-0.29419,-0.50977;
18:13:01.767,-0.86890,-0.28687,-0.55884;
18:13:01.777,-0.86279,-0.30298,-0.59814;
18:13:01.787,-0.83203,-0.31299,-0.58643;
18:13:01.797,-0.81738,-0.31494,-0.56787;
18:13:01.807,-0.76587,-0.33667,-0.53857;
18:13:01.817,-0.75098,-0.37451,-0.48730;
18:13:01.827,-0.77759,-0.38525,-0.48584;
18:13:01.837,-0.78589,-0.36890,-0.48438;
18:13:01.847,-0.83911,-0.35010,-0.52344;
18:13:01.857,-0.83447,-0.27832,-0.51636;
18:13:01.867,-0.84692,-0.28076,-0.43091;
18:13:01.877,-0.84961,-0.35547,-0.34009;
18:13:01.887,-0.80884,-0.40991,-0.24194;
18:13:01.897,-0.82935,-0.45459,-0.15137;
18:13:01.907,-0.85742,-0.49463,-0.12622;
18:13:01.917,-0.84009,-0.50562,-0.13867;
18:13:01.927,-0.81812,-0.51465,-0.22778;
18:13:01.937,-0.77612,-0.49854,-0.28589;
18:13:01.947,-0.79370,-0.46655,-0.36206;
18:13:01.957,-0.77539,-0.44897,-0.44385;
18:13:01.967,-0.78564,-0.38965,-0.48071;
18:13:01.977,-0.79150,-0.38916,-0.49634;
18:13:01.987,-0.72656,-0.41138,-0.49512;
18:13:01.997,-0.74170,-0.40405,-0.48608;
18:13:02.007,-0.83643,-0.36499,-0.44336;
18:13:02.017,-0.76587,-0.41821,-0.41919;
18:13:02.027,-0.75269,-0.42432,-0.38086;
18:13:02.037,-0.69312,-0.49243,-0.32129;
18:13:02.047,-0.75317,-0.49219,-0.29175;
18:13:02.057,-0.78491,-0.50635,-0.32739;
18:13:02.067,-0.75879,-0.51953,-0.42261;
18:13:02.077,-0.69434,-0.46484,-0.53784;
18:13:02.087,-0.63281,-0.42651,-0.60718;
18:13:02.097,-0.67065,-0.37402,-0.61255;
18:13:02.107,-0.69360,-0.38501,-0.56104;
18:13:02.117,-0.73633,-0.43359,-0.47510;
18:13:02.127,-0.74780,-0.45801,-0.40186;
18:13:02.137,-0.76318,-0.46729,-0.37500;
18:13:02.147,-0.75366,-0.49976,-0.39990;
18:13:02.157,-0.75806,-0.50073,-0.45068;
18:13:02.167,-0.73535,-0.49658,-0.55737;
18:13:02.177,-0.70117,-0.43433,-0.66382;
18:13:02.187,-0.68823,-0.38354,-0.68823;
18:13:02.197,-0.72168,-0.37305,-0.62817;
18:13:02.207,-0.76758,-0.37256,-0.54077;
18:13:02.217,-0.75439,-0.43530,-0.47754;
18:13:02.227,-0.76025,-0.46289,-0.42773;
18:13:02.237,-0.76440,-0.46143,-0.41382;
18:13:02.247,-0.76196,-0.44727,-0.41846;
18:13:02.257,-0.76001,-0.43481,-0.40942;
18:13:02.267,-0.76245,-0.44653,-0.40015;
18:13:02.277,-0.76367,-0.46167,-0.42212;
18:13:02.287,-0.76660,-0.44971,-0.45776;
18:13:02.297,-0.76709,-0.44165,-0.47998;
18:13:02.307,-0.76489,-0.43726,-0.49463;
18:13:02.317,-0.76245,-0.43335,-0.49023;
18:13:02.327,-0.76440,-0.44604,-0.46411;
18:13:02.337,-0.76880,-0.45923,-0.44775;
18:13:02.347,-0.76563,-0.44482,-0.39478;
18:13:02.357,-0.76880,-0.47119,-0.34814;
18:13:02.367,-0.76782,-0.47827,-0.33008;
18:13:02.377,-0.76025,-0.48047,-0.34326;
18:13:02.387,-0.75195,-0.48755,-0.39990;
18:13:02.397,-0.74976,-0.46216,-0.45679;
18:13:02.407,-0.74194,-0.45654,-0.47998;
18:13:02.417,-0.73535,-0.45142,-0.47656;
18:13:02.427,-0.74634,-0.44336,-0.46729;
18:13:02.437,-0.74756,-0.43994,-0.45264;
18:13:02.447,-0.74585,-0.45752,-0.42969;
18:13:02.457,-0.75391,-0.46802,-0.41602;
18:13:02.467,-0.76318,-0.47363,-0.40894;
18:13:02.477,-0.76929,-0.48047,-0.41675;
18:13:02.487,-0.76929,-0.47632,-0.44531;
18:13:02.497,-0.77222,-0.46436,-0.46167;
18:13:02.507,-0.77563,-0.44995,-0.45459;
18:13:02.517,-0.77393,-0.44604,-0.43945;
18:13:02.527,-0.78076,-0.44824,-0.44092;
18:13:02.537,-0.78125,-0.44482,-0.45996;
18:13:02.547,-0.76489,-0.43555,-0.47266;
18:13:02.557,-0.75464,-0.45044,-0.46753;
18:13:02.567,-0.75269,-0.45581,-0.45166;
18:13:02.577,-0.76221,-0.45605,-0.44434;
18:13:02.587,-0.76440,-0.45288,-0.44287;
18:13:02.597,-0.77002,-0.44092,-0.43921;
18:13:02.607,-0.78101,-0.44360,-0.43823;
18:13:02.617,-0.79175,-0.43726,-0.44531;
18:13:02.627,-0.79785,-0.43237,-0.47437;
18:13:02.637,-0.77612,-0.43677,-0.50000;
18:13:02.647,-0.76416,-0.44141,-0.47778;
18:13:02.657,-0.77173,-0.46997,-0.37817;
18:13:02.667,-0.81006,-0.41553,-0.43115;
18:13:02.677,-0.80371,-0.43823,-0.41675;
18:13:02.687,-0.78735,-0.45728,-0.39307;
18:13:02.697,-0.86499,-0.36426,-0.39429;
18:13:02.707,-0.84033,-0.39624,-0.37305;
18:13:02.717,-0.75000,-0.47681,-0.34766;
18:13:02.727,-0.75952,-0.50293,-0.35620;
18:13:02.737,-0.76855,-0.48511,-0.39209;
18:13:02.747,-0.75879,-0.47095,-0.43384;
18:13:02.757,-0.73779,-0.46948,-0.45581;
18:13:02.767,-0.73096,-0.44531,-0.47388;
18:13:02.777,-0.72241,-0.45264,-0.47192;
18:13:02.787,-0.72070,-0.47778,-0.44775;
18:13:02.797,-0.73438,-0.46411,-0.42017;
18:13:02.807,-0.74780,-0.44751,-0.40820;
18:13:02.817,-0.74854,-0.46558,-0.43652;
18:13:02.827,-0.75562,-0.46533,-0.49438;
18:13:02.837,-0.74561,-0.46948,-0.54297;
18:13:02.847,-0.73413,-0.47046,-0.56079;
18:13:02.857,-0.76099,-0.44238,-0.51709;
18:13:02.867,-0.75195,-0.45557,-0.42334;
18:13:02.877,-0.79199,-0.45947,-0.37622;
18:13:02.887,-0.81323,-0.46216,-0.37500;
18:13:02.897,-0.79419,-0.49097,-0.43213;
18:13:02.907,-0.79688,-0.48926,-0.44922;
18:13:02.917,-0.78613,-0.46924,-0.42334;
18:13:02.927,-0.81348,-0.45435,-0.39014;
18:13:02.937,-0.83691,-0.45850,-0.35474;
18:13:02.947,-0.80957,-0.46606,-0.33374;
18:13:02.957,-0.77783,-0.49292,-0.31177;
18:13:02.967,-0.77563,-0.49414,-0.32666;
18:13:02.977,-0.75269,-0.43042,-0.37280;
18:13:02.987,-0.76099,-0.42969,-0.37476;
18:13:02.997,-0.78931,-0.45435,-0.36841;
18:13:03.007,-0.77246,-0.48340,-0.35596;
18:13:03.017,-0.75244,-0.49463,-0.31299;
18:13:03.027,-0.74731,-0.50391,-0.26367;
18:13:03.037,-0.74951,-0.50586,-0.23438;
18:13:03.047,-0.75757,-0.51367,-0.24438;
18:13:03.057,-0.75757,-0.51880,-0.30591;
18:13:03.067,-0.76221,-0.49438,-0.36304;
18:13:03.077,-0.76685,-0.46069,-0.42505;
18:13:03.087,-0.76587,-0.43555,-0.45239;
18:13:03.097,-0.76025,-0.44116,-0.41675;
18:13:03.107,-0.75879,-0.47607,-0.38159;
18:13:03.117,-0.77979,-0.49512,-0.37402;
18:13:03.127,-0.80884,-0.50171,-0.39771;
18:13:03.137,-0.80835,-0.49951,-0.43506;
18:13:03.147,-0.78149,-0.48193,-0.46045;
18:13:03.157,-0.77319,-0.46338,-0.48730;
18:13:03.167,-0.77075,-0.44629,-0.49048;
18:13:03.177,-0.76440,-0.46289,-0.48022;
18:13:03.187,-0.76123,-0.49683,-0.41431;
18:13:03.197,-0.74878,-0.52148,-0.34619;
18:13:03.207,-0.74878,-0.53198,-0.32446;
18:13:03.217,-0.76147,-0.52246,-0.31396;
18:13:03.227,-0.76782,-0.51099,-0.31152;
18:13:03.237,-0.78394,-0.50024,-0.31421;
18:13:03.247,-0.81860,-0.50635,-0.29272;
18:13:03.257,-0.83594,-0.51733,-0.27173;
18:13:03.267,-0.84058,-0.55103,-0.24561;
18:13:03.277,-0.85620,-0.57788,-0.22632;
18:13:03.287,-0.84644,-0.57471,-0.22583;
18:13:03.297,-0.84790,-0.55420,-0.23535;
18:13:03.307,-0.84253,-0.55444,-0.22095;
18:13:03.317,-0.82520,-0.56396,-0.16943;
18:13:03.327,-0.81055,-0.51587,-0.18604;
18:13:03.337,-0.79980,-0.54907,-0.26709;
18:13:03.347,-0.79004,-0.51074,-0.27832;
18:13:03.357,-0.79907,-0.50317,-0.31641;
18:13:03.367,-0.77417,-0.47876,-0.32422;
18:13:03.377,-0.77808,-0.42188,-0.25928;
18:13:03.387,-0.76489,-0.46582,-0.27393;
18:13:03.397,-0.74536,-0.50391,-0.22998;
18:13:03.407,-0.86035,-0.52710,-0.26245;
18:13:03.417,-0.83496,-0.48535,-0.26270;
18:13:03.427,-0.76440,-0.47485,-0.26099;
18:13:03.437,-0.73438,-0.59766,-0.17505;
18:13:03.447,-0.73462,-0.57349,-0.37769;
18:13:03.457,-0.75610,-0.61084,-0.29639;
18:13:03.467,-0.79932,-0.49194,-0.29565;
18:13:03.477,-0.81128,-0.43652,-0.35864;
18:13:03.487,-0.85767,-0.49438,-0.41138;
18:13:03.497,-0.87793,-0.56006,-0.41675;
18:13:03.507,-0.83667,-0.52246,-0.32690;
18:13:03.517,-0.81763,-0.54858,-0.22339;
18:13:03.527,-0.78320,-0.57764,-0.10791;
18:13:03.537,-0.79492,-0.60229,-0.04956;
18:13:03.547,-0.79150,-0.60425,-0.03711;
18:13:03.557,-0.79565,-0.61230,-0.05884;
18:13:03.567,-0.81372,-0.60718,-0.08472;
18:13:03.577,-0.78809,-0.60620,-0.10327;
18:13:03.587,-0.77222,-0.60156,-0.12109;
18:13:03.597,-0.75977,-0.60376,-0.14697;
18:13:03.607,-0.75513,-0.60742,-0.15381;
18:13:03.617,-0.74805,-0.60620,-0.16211;
18:13:03.627,-0.73950,-0.61060,-0.17163;
18:13:03.637,-0.74609,-0.61084,-0.18408;
18:13:03.647,-0.76001,-0.61987,-0.19531;
18:13:03.657,-0.76563,-0.61621,-0.19458;
18:13:03.667,-0.76831,-0.61328,-0.19434;
18:13:03.677,-0.78589,-0.62256,-0.21436;
18:13:03.687,-0.78271,-0.62549,-0.23340;
18:13:03.697,-0.76392,-0.62402,-0.22754;
18:13:03.707,-0.75806,-0.63159,-0.20850;
18:13:03.717,-0.74854,-0.62695,-0.16431;
18:13:03.727,-0.73193,-0.63550,-0.11621;
18:13:03.737,-0.73047,-0.64868,-0.08374;
18:13:03.747,-0.72803,-0.64575,-0.07520;
18:13:03.757,-0.72656,-0.65454,-0.08203;
18:13:03.767,-0.74023,-0.63843,-0.07544;
18:13:03.777,-0.71631,-0.62183,-0.04175;
18:13:03.787,-0.71118,-0.64624,-0.00903;
18:13:03.797,-0.72559,-0.66406,-0.01660;
18:13:03.807,-0.71631,-0.67334,-0.05249;
18:13:03.817,-0.72778,-0.69092,-0.10181;
18:13:03.827,-0.70825,-0.67725,-0.14990;
18:13:03.837,-0.68945,-0.66382,-0.18018;
18:13:03.847,-0.70850,-0.66919,-0.19995;
18:13:03.857,-0.71558,-0.66040,-0.20410;
18:13:03.867,-0.71802,-0.65674,-0.17847;
18:13:03.877,-0.72900,-0.66089,-0.14111;
18:13:03.887,-0.73828,-0.67407,-0.11060;
18:13:03.897,-0.74756,-0.69092,-0.09619;
18:13:03.907,-0.75195,-0.68311,-0.13843;
18:13:03.917,-0.75781,-0.68628,-0.20435;
18:13:03.927,-0.75317,-0.68042,-0.22656;
18:13:03.937,-0.74121,-0.68408,-0.20313;
18:13:03.947,-0.73389,-0.67651,-0.14136;
18:13:03.957,-0.72559,-0.65674,-0.08984;
18:13:03.967,-0.73804,-0.66040,-0.07227;
18:13:03.977,-0.74658,-0.67236,-0.08228;
18:13:03.987,-0.74414,-0.66577,-0.09033;
18:13:03.997,-0.72876,-0.66357,-0.09570;
18:13:04.007,-0.71826,-0.66235,-0.09814;
18:13:04.017,-0.71216,-0.67017,-0.10229;
18:13:04.027,-0.70557,-0.68164,-0.11353;
18:13:04.037,-0.69531,-0.68579,-0.12524;
18:13:04.047,-0.68335,-0.68433,-0.13062;
18:13:04.057,-0.68091,-0.67529,-0.13306;
18:13:04.067,-0.68628,-0.66577,-0.13013;
18:13:04.077,-0.68677,-0.66333,-0.13086;
18:13:04.087,-0.68018,-0.66455,-0.13477;
18:13:04.097,-0.67285,-0.66113,-0.14038;
18:13:04.107,-0.66284,-0.65918,-0.13647;
18:13:04.117,-0.65210,-0.66211,-0.12598;
18:13:04.127,-0.66431,-0.66309,-0.13574;
18:13:04.137,-0.69873,-0.67798,-0.18555;
18:13:04.147,-0.74438,-0.69531,-0.28345;
18:13:04.157,-0.75562,-0.68042,-0.34473;
18:13:04.167,-0.75146,-0.66577,-0.33252;
18:13:04.177,-0.72974,-0.63062,-0.17505;
18:13:04.187,-0.74658,-0.65234,-0.20752;
18:13:04.197,-0.72827,-0.63501,-0.21191;
18:13:04.207,-0.73291,-0.62988,-0.19604;
18:13:04.217,-0.73022,-0.63257,-0.16235;
18:13:04.227,-0.73511,-0.62939,-0.15405;
18:13:04.237,-0.74341,-0.63184,-0.16113;
18:13:04.247,-0.74048,-0.63281,-0.17676;
18:13:04.257,-0.74243,-0.62988,-0.18018;
18:13:04.267,-0.73877,-0.62109,-0.16870;
18:13:04.277,-0.72192,-0.59937,-0.14697;
18:13:04.287,-0.71924,-0.60547,-0.13477;
18:13:04.297,-0.73071,-0.62622,-0.14404;
18:13:04.307,-0.72095,-0.63940,-0.15112;
18:13:04.317,-0.70752,-0.64502,-0.15625;
18:13:04.327,-0.70239,-0.64038,-0.16504;
18:13:04.337,-0.69922,-0.63989,-0.17725;
18:13:04.347,-0.69653,-0.64136,-0.19116;
18:13:04.357,-0.70044,-0.65381,-0.19263;
18:13:04.367,-0.70630,-0.67627,-0.19312;
18:13:04.377,-0.69849,-0.63208,-0.20288;
18:13:04.387,-0.71411,-0.62598,-0.21387;
18:13:04.397,-0.72241,-0.64600,-0.22705;
18:13:04.407,-0.72046,-0.62891,-0.23999;
18:13:04.417,-0.74072,-0.65552,-0.25146;
18:13:04.427,-0.73071,-0.63574,-0.26367;
18:13:04.437,-0.73804,-0.63086,-0.25610;
18:13:04.447,-0.75098,-0.62329,-0.22754;
18:13:04.457,-0.73608,-0.62769,-0.19580;
18:13:04.467,-0.74365,-0.63818,-0.18628;
18:13:04.477,-0.75391,-0.65234,-0.19507;
18:13:04.487,-0.75171,-0.65625,-0.20728;
18:13:04.497,-0.74365,-0.62573,-0.22437;
18:13:04.507,-0.74463,-0.62744,-0.22168;
18:13:04.517,-0.75220,-0.64746,-0.20752;
18:13:04.527,-0.75439,-0.64868,-0.21436;
18:13:04.537,-0.75708,-0.63354,-0.21948;
18:13:04.547,-0.74805,-0.62744,-0.22095;
18:13:04.557,-0.75122,-0.63062,-0.21606;
18:13:04.567,-0.75415,-0.63623,-0.20288;
18:13:04.577,-0.75952,-0.62598,-0.19385;
18:13:04.587,-0.76660,-0.61499,-0.15991;
18:13:04.597,-0.76514,-0.62329,-0.13940;
18:13:04.607,-0.76929,-0.62915,-0.12842;
18:13:04.617,-0.75391,-0.63135,-0.11621;
18:13:04.627,-0.74902,-0.64526,-0.11646;
18:13:04.637,-0.73853,-0.63159,-0.12427;
18:13:04.647,-0.75122,-0.62915,-0.13208;
18:13:04.657,-0.75049,-0.61206,-0.08325;
18:13:04.667,-0.73071,-0.61060,-0.02246;
18:13:04.677,-0.75586,-0.64600,-0.01172;
18:13:04.687,-0.73657,-0.65283,-0.02441;
18:13:04.697,-0.72607,-0.64551,-0.03125;
18:13:04.707,-0.74146,-0.64502,-0.04272;
18:13:04.717,-0.74121,-0.64233,-0.07910;
18:13:04.727,-0.73096,-0.64307,-0.11450;
18:13:04.737,-0.72290,-0.63037,-0.13940;
18:13:04.747,-0.72632,-0.61938,-0.15088;
18:13:04.757,-0.71411,-0.60425,-0.15063;
18:13:04.767,-0.72290,-0.60913,-0.15918;
18:13:04.777,-0.76416,-0.62817,-0.19653;
18:13:04.787,-0.76245,-0.62231,-0.23999;
18:13:04.797,-0.76660,-0.59351,-0.27246;
18:13:04.807,-0.77148,-0.55884,-0.25732;
18:13:04.817,-0.77075,-0.55127,-0.25513;
18:13:04.827,-0.77271,-0.60059,-0.24194;
18:13:04.837,-0.78247,-0.61255,-0.21729;
18:13:04.847,-0.76904,-0.58984,-0.20264;
18:13:04.857,-0.77344,-0.58667,-0.17163;
18:13:04.867,-0.76831,-0.58105,-0.15332;
18:13:04.877,-0.76294,-0.60742,-0.13208;
18:13:04.887,-0.76025,-0.62378,-0.13306;
18:13:04.897,-0.75830,-0.60742,-0.11841;
18:13:04.907,-0.75830,-0.59985,-0.10229;
18:13:04.917,-0.74951,-0.61230,-0.07910;
18:13:04.927,-0.75708,-0.64185,-0.07666;
18:13:04.937,-0.77051,-0.60986,-0.20532;
18:13:04.947,-0.77832,-0.57983,-0.29736;
18:13:04.957,-0.77197,-0.57910,-0.31323;
18:13:04.967,-0.78857,-0.59033,-0.27856;
18:13:04.977,-0.78589,-0.61475,-0.22510;
18:13:04.987,-0.78394,-0.61475,-0.19458;
18:13:04.997,-0.79443,-0.62524,-0.18457;
18:13:05.007,-0.78711,-0.64087,-0.19971;
18:13:05.017,-0.78271,-0.65869,-0.22949;
18:13:05.027,-0.76929,-0.66895,-0.23145;
18:13:05.037,-0.76563,-0.70630,-0.20410;
18:13:05.047,-0.75464,-0.65332,-0.13843;
18:13:05.057,-0.74170,-0.61890,-0.07202;
18:13:05.067,-0.75293,-0.63110,-0.03516;
18:13:05.077,-0.76489,-0.63574,-0.05005;
18:13:05.087,-0.76807,-0.64380,-0.09106;
18:13:05.097,-0.75830,-0.63232,-0.11548;
18:13:05.107,-0.75146,-0.62256,-0.12036;
18:13:05.117,-0.75708,-0.61426,-0.11621;
18:13:05.127,-0.76440,-0.61401,-0.10620;
18:13:05.137,-0.76733,-0.61890,-0.10303;
18:13:05.147,-0.76221,-0.62134,-0.10718;
18:13:05.157,-0.75562,-0.61523,-0.10376;
18:13:05.167,-0.75366,-0.61255,-0.10767;
18:13:05.177,-0.76074,-0.61597,-0.13525;
18:13:05.187,-0.76733,-0.63037,-0.17847;
18:13:05.197,-0.76465,-0.64185,-0.21704;
18:13:05.207,-0.75513,-0.64111,-0.23901;
18:13:05.217,-0.73877,-0.63330,-0.23413;
18:13:05.227,-0.72998,-0.62622,-0.21655;
18:13:05.237,-0.74097,-0.62207,-0.19702;
18:13:05.247,-0.74390,-0.62427,-0.19116;
18:13:05.257,-0.74390,-0.64185,-0.19800;
18:13:05.267,-0.75342,-0.63672,-0.22461;
18:13:05.277,-0.75806,-0.63501,-0.26904;
18:13:05.287,-0.76489,-0.62793,-0.26855;
18:13:05.297,-0.75488,-0.61499,-0.23730;
18:13:05.307,-0.74316,-0.60938,-0.17407;
18:13:05.317,-0.75171,-0.61108,-0.13208;
18:13:05.327,-0.75098,-0.61938,-0.11987;
18:13:05.337,-0.74512,-0.62231,-0.12329;
18:13:05.347,-0.74121,-0.61816,-0.13354;
18:13:05.357,-0.73926,-0.61157,-0.14868;
18:13:05.367,-0.73828,-0.61426,-0.17480;
18:13:05.377,-0.71924,-0.61914,-0.19409;
18:13:05.387,-0.70093,-0.62598,-0.20239;
18:13:05.397,-0.69287,-0.62256,-0.19458;
18:13:05.407,-0.68921,-0.61548,-0.18896;
18:13:05.417,-0.70459,-0.61646,-0.19409;
18:13:05.427,-0.71729,-0.61523,-0.20752;
18:13:05.437,-0.73633,-0.61987,-0.24316;
18:13:05.447,-0.74731,-0.60571,-0.27441;
18:13:05.457,-0.75928,-0.59375,-0.30444;
18:13:05.467,-0.77075,-0.60645,-0.32349;
18:13:05.477,-0.76489,-0.60938,-0.33936;
18:13:05.487,-0.76782,-0.61499,-0.34790;
18:13:05.497,-0.76685,-0.60767,-0.32251;
18:13:05.507,-0.76001,-0.58862,-0.26440;
18:13:05.517,-0.75928,-0.58862,-0.21558;
18:13:05.527,-0.76123,-0.59326,-0.19580;
18:13:05.537,-0.75928,-0.60596,-0.19604;
18:13:05.547,-0.75488,-0.60522,-0.21606;
18:13:05.557,-0.73901,-0.60352,-0.23022;
18:13:05.567,-0.72949,-0.60229,-0.23096;
18:13:05.577,-0.73096,-0.60376,-0.22314;
18:13:05.587,-0.71973,-0.60571,-0.22046;
18:13:05.597,-0.70947,-0.61108,-0.21973;
18:13:05.607,-0.70605,-0.61426,-0.21069;
18:13:05.617,-0.70654,-0.60229,-0.20874;
18:13:05.627,-0.71021,-0.61230,-0.20068;
18:13:05.637,-0.71045,-0.61084,-0.20435;
18:13:05.647,-0.70703,-0.59888,-0.21899;
18:13:05.657,-0.70410,-0.59253,-0.24390;
18:13:05.667,-0.72119,-0.59668,-0.28223;
18:13:05.677,-0.72070,-0.59644,-0.31226;
18:13:05.687,-0.72510,-0.60889,-0.25073;
18:13:05.697,-0.72412,-0.61914,-0.19775;
18:13:05.707,-0.73022,-0.62427,-0.27246;
18:13:05.717,-0.74243,-0.60254,-0.35327;
18:13:05.727,-0.75171,-0.60132,-0.30029;
18:13:05.737,-0.74805,-0.60986,-0.27271;
18:13:05.747,-0.75391,-0.62524,-0.29492;
18:13:05.757,-0.75781,-0.62500,-0.35840;
18:13:05.767,-0.75562,-0.61157,-0.41455;
18:13:05.777,-0.74829,-0.59521,-0.41187;
18:13:05.787,-0.73975,-0.60791,-0.34692;
18:13:05.797,-0.74170,-0.61206,-0.26953;
18:13:05.807,-0.74683,-0.61499,-0.23315;
18:13:05.817,-0.74023,-0.63062,-0.24829;
18:13:05.827,-0.74048,-0.63916,-0.28271;
18:13:05.837,-0.73389,-0.64136,-0.29883;
18:13:05.847,-0.72559,-0.63354,-0.29736;
18:13:05.857,-0.72510,-0.63184,-0.28931;
18:13:05.867,-0.72559,-0.63208,-0.27710;
18:13:05.877,-0.72095,-0.62988,-0.27002;
18:13:05.887,-0.71851,-0.62769,-0.26025;
18:13:05.897,-0.71973,-0.62158,-0.25049;
18:13:05.907,-0.71899,-0.61792,-0.24707;
18:13:05.917,-0.71729,-0.61987,-0.24268;
18:13:05.927,-0.71094,-0.62451,-0.24438;
18:13:05.937,-0.70117,-0.61816,-0.23901;
18:13:05.947,-0.69849,-0.62231,-0.23486;
18:13:05.957,-0.70117,-0.61401,-0.23682;
18:13:05.967,-0.70313,-0.61426,-0.23364;
18:13:05.977,-0.70068,-0.61987,-0.23315;
18:13:05.987,-0.69775,-0.61133,-0.23633;
18:13:05.997,-0.70190,-0.61719,-0.24683;
18:13:06.007,-0.70410,-0.61279,-0.26196;
18:13:06.017,-0.71118,-0.60742,-0.27515;
18:13:06.027,-0.72437,-0.60278,-0.29932;
18:13:06.037,-0.73535,-0.60767,-0.33960;
18:13:06.047,-0.73291,-0.60742,-0.37598;
18:13:06.057,-0.73706,-0.61011,-0.37329;
18:13:06.067,-0.74268,-0.60840,-0.34521;
18:13:06.077,-0.72705,-0.60327,-0.30762;
18:13:06.087,-0.72998,-0.60718,-0.27417;
18:13:06.097,-0.73413,-0.60718,-0.27002;
18:13:06.107,-0.72534,-0.61255,-0.28345;
18:13:06.117,-0.72314,-0.62012,-0.30322;
18:13:06.127,-0.72461,-0.62158,-0.32104;
18:13:06.137,-0.73242,-0.62817,-0.34009;
18:13:06.147,-0.72778,-0.62915,-0.34595;
18:13:06.157,-0.71411,-0.62354,-0.32056;
18:13:06.167,-0.70483,-0.62305,-0.28979;
18:13:06.177,-0.70117,-0.62134,-0.26929;
18:13:06.187,-0.69849,-0.62476,-0.27563;
18:13:06.197,-0.70264,-0.63013,-0.29858;
18:13:06.207,-0.70728,-0.62671,-0.31494;
18:13:06.217,-0.70679,-0.61719,-0.32129;
18:13:06.227,-0.70874,-0.62183,-0.31396;
18:13:06.237,-0.70679,-0.61938,-0.30566;
18:13:06.247,-0.70630,-0.61646,-0.30054;
18:13:06.257,-0.70435,-0.61768,-0.30176;
18:13:06.267,-0.69580,-0.61597,-0.30200;
18:13:06.277,-0.69458,-0.62476,-0.29565;
18:13:06.287,-0.70435,-0.60840,-0.29565;
18:13:06.297,-0.70239,-0.60962,-0.28882;
18:13:06.307,-0.70044,-0.60938,-0.27124;
18:13:06.317,-0.69385,-0.61060,-0.25024;
18:13:06.327,-0.69092,-0.61475,-0.24268;
18:13:06.337,-0.69971,-0.61523,-0.24780;
18:13:06.347,-0.70313,-0.61548,-0.25977;
18:13:06.357,-0.70996,-0.62134,-0.27734;
18:13:06.367,-0.70923,-0.62427,-0.35547;
18:13:06.377,-0.73657,-0.62744,-0.43555;
18:13:06.387,-0.74829,-0.61597,-0.38403;
18:13:06.397,-0.75269,-0.60742,-0.28198;
18:13:06.407,-0.75049,-0.61499,-0.30322;
18:13:06.417,-0.74585,-0.62354,-0.32837;
18:13:06.427,-0.71924,-0.62720,-0.33740;
18:13:06.437,-0.69897,-0.62402,-0.32666;
18:13:06.447,-0.68994,-0.62646,-0.31885;
18:13:06.457,-0.67969,-0.62744,-0.32153;
18:13:06.467,-0.67358,-0.62964,-0.32080;
18:13:06.477,-0.67017,-0.62451,-0.31128;
18:13:06.487,-0.67163,-0.61426,-0.29688;
18:13:06.497,-0.67407,-0.60791,-0.29150;
18:13:06.507,-0.68164,-0.61914,-0.28735;
18:13:06.517,-0.68848,-0.62451,-0.28589;
18:13:06.527,-0.69507,-0.61377,-0.28687;
18:13:06.537,-0.70459,-0.61621,-0.29248;
18:13:06.547,-0.70703,-0.61011,-0.29883;
18:13:06.557,-0.70557,-0.61328,-0.30347;
18:13:06.567,-0.70972,-0.60767,-0.31689;
18:13:06.577,-0.70581,-0.60620,-0.33496;
18:13:06.587,-0.70703,-0.61182,-0.35327;
18:13:06.597,-0.70288,-0.60181,-0.35229;
18:13:06.607,-0.69800,-0.59937,-0.33618;
18:13:06.617,-0.69922,-0.59595,-0.31348;
18:13:06.627,-0.69775,-0.59277,-0.30664;
18:13:06.637,-0.69751,-0.58911,-0.31665;
18:13:06.647,-0.69800,-0.59717,-0.32568;
18:13:06.657,-0.70313,-0.60449,-0.33203;
18:13:06.667,-0.70532,-0.59888,-0.33228;
18:13:06.677,-0.70605,-0.59863,-0.33130;
18:13:06.687,-0.70508,-0.60474,-0.33203;
18:13:06.697,-0.70581,-0.60498,-0.33154;
18:13:06.707,-0.70459,-0.60986,-0.32690;
18:13:06.717,-0.70337,-0.60840,-0.32153;
18:13:06.727,-0.70581,-0.60767,-0.30640;
18:13:06.737,-0.70679,-0.61035,-0.28296;
18:13:06.747,-0.71411,-0.60938,-0.27319;
18:13:06.757,-0.72534,-0.60913,-0.29980;
18:13:06.767,-0.74512,-0.61182,-0.37866;
18:13:06.777,-0.74829,-0.60327,-0.45117;
18:13:06.787,-0.72119,-0.59106,-0.44849;
18:13:06.797,-0.71704,-0.59351,-0.37769;
18:13:06.807,-0.71875,-0.59790,-0.30737;
18:13:06.817,-0.71753,-0.60229,-0.29053;
18:13:06.827,-0.72705,-0.61719,-0.31543;
18:13:06.837,-0.71704,-0.60938,-0.34106;
18:13:06.847,-0.71118,-0.60059,-0.34033;
18:13:06.857,-0.71704,-0.60840,-0.32202;
18:13:06.867,-0.71533,-0.60474,-0.31152;
18:13:06.877,-0.71362,-0.60864,-0.32202;
18:13:06.887,-0.70898,-0.61084,-0.33740;
18:13:06.897,-0.70215,-0.60742,-0.33765;
18:13:06.907,-0.69946,-0.60132,-0.32617;
18:13:06.917,-0.70044,-0.60107,-0.31543;
18:13:06.927,-0.70386,-0.60278,-0.31714;
18:13:06.937,-0.70752,-0.60425,-0.32251;
18:13:06.947,-0.70972,-0.60791,-0.32837;
18:13:06.957,-0.71289,-0.61011,-0.33325;
18:13:06.967,-0.71191,-0.60913,-0.32959;
18:13:06.977,-0.70923,-0.60815,-0.32568;
18:13:06.987,-0.71143,-0.61182,-0.31909;
18:13:06.997,-0.71436,-0.61060,-0.31689;
18:13:07.007,-0.71997,-0.61133,-0.33081;
18:13:07.017,-0.72095,-0.61450,-0.35059;
18:13:07.027,-0.71680,-0.61353,-0.35352;
18:13:07.037,-0.71704,-0.61011,-0.33618;
18:13:07.047,-0.71460,-0.60645,-0.32031;
18:13:07.057,-0.71167,-0.60791,-0.31543;
18:13:07.067,-0.71240,-0.61060,-0.31616;
18:13:07.077,-0.71143,-0.61353,-0.32446;
18:13:07.087,-0.70776,-0.61377,-0.33081;
18:13:07.097,-0.70581,-0.61255,-0.33130;
18:13:07.107,-0.70874,-0.60889,-0.33228;
18:13:07.117,-0.70679,-0.60571,-0.32715;
18:13:07.127,-0.70508,-0.60547,-0.32617;
18:13:07.137,-0.70239,-0.60718,-0.33472;
18:13:07.147,-0.70557,-0.60400,-0.32959;
18:13:07.157,-0.70605,-0.60596,-0.32324;
18:13:07.167,-0.70825,-0.60986,-0.32739;
18:13:07.177,-0.70728,-0.60742,-0.32520;
18:13:07.187,-0.70776,-0.60571,-0.31860;
18:13:07.197,-0.70972,-0.59912,-0.30200;
18:13:07.207,-0.70532,-0.59546,-0.27588;
18:13:07.217,-0.70337,-0.60059,-0.25098;
18:13:07.227,-0.70068,-0.60400,-0.24219;
18:13:07.237,-0.69971,-0.61890,-0.23877;
18:13:07.247,-0.70288,-0.62012,-0.24658;
18:13:07.257,-0.70044,-0.61084,-0.26196;
18:13:07.267,-0.70239,-0.62305,-0.28149;
18:13:07.277,-0.70142,-0.61841,-0.30151;
18:13:07.287,-0.69897,-0.61475,-0.31885;
18:13:07.297,-0.70459,-0.61621,-0.33521;
18:13:07.307,-0.71851,-0.61597,-0.35327;
18:13:07.317,-0.72681,-0.61450,-0.37256;
18:13:07.327,-0.73486,-0.60791,-0.38770;
18:13:07.337,-0.73901,-0.61035,-0.38794;
18:13:07.347,-0.74414,-0.60864,-0.37109;
18:13:07.357,-0.74658,-0.60669,-0.35010;
18:13:07.367,-0.74219,-0.60840,-0.32056;
18:13:07.377,-0.74121,-0.61060,-0.29248;
18:13:07.387,-0.73706,-0.61279,-0.27563;
18:13:07.397,-0.73633,-0.61548,-0.27783;
18:13:07.407,-0.73608,-0.61816,-0.29272;
18:13:07.417,-0.72852,-0.61646,-0.31421;
18:13:07.427,-0.71851,-0.62280,-0.31714;
18:13:07.437,-0.71240,-0.62500,-0.29810;
18:13:07.447,-0.70898,-0.62256,-0.28125;
18:13:07.457,-0.70581,-0.62354,-0.27197;
18:13:07.467,-0.70508,-0.62524,-0.27441;
18:13:07.477,-0.70703,-0.62646,-0.28296;
18:13:07.487,-0.70776,-0.62817,-0.28271;
18:13:07.497,-0.70972,-0.62842,-0.27979;
18:13:07.507,-0.71216,-0.62598,-0.27637;
18:13:07.517,-0.71216,-0.62524,-0.27759;
18:13:07.527,-0.71240,-0.62427,-0.28296;
18:13:07.537,-0.71436,-0.62500,-0.28369;
18:13:07.547,-0.71411,-0.62402,-0.28589;
18:13:07.557,-0.71582,-0.62329,-0.28784;
18:13:07.567,-0.71851,-0.62231,-0.28564;
18:13:07.577,-0.71924,-0.61914,-0.28149;
18:13:07.587,-0.71851,-0.62134,-0.27930;
18:13:07.597,-0.71973,-0.62305,-0.28247;
18:13:07.607,-0.72070,-0.61890,-0.29688;
18:13:07.617,-0.72339,-0.61914,-0.31592;
18:13:07.627,-0.72070,-0.61621,-0.32056;
18:13:07.637,-0.72168,-0.61572,-0.30566;
18:13:07.647,-0.71899,-0.61743,-0.28955;
18:13:07.657,-0.72095,-0.61914,-0.29517;
18:13:07.667,-0.73096,-0.62598,-0.32568;
18:13:07.677,-0.73071,-0.63184,-0.35425;
18:13:07.687,-0.72583,-0.62622,-0.35400;
18:13:07.697,-0.71436,-0.61304,-0.31812;
18:13:07.707,-0.71289,-0.60767,-0.26929;
18:13:07.717,-0.71729,-0.60889,-0.24463;
18:13:07.727,-0.71973,-0.61792,-0.25830;
18:13:07.737,-0.71973,-0.62158,-0.28784;
18:13:07.747,-0.71924,-0.62427,-0.31030;
18:13:07.757,-0.70874,-0.61768,-0.30933;
18:13:07.767,-0.70337,-0.61499,-0.28857;
18:13:07.777,-0.70288,-0.61499,-0.27539;
18:13:07.787,-0.70166,-0.61475,-0.27393;
18:13:07.797,-0.70410,-0.61963,-0.28247;
18:13:07.807,-0.70093,-0.61304,-0.29590;
18:13:07.817,-0.70605,-0.61157,-0.29834;
18:13:07.827,-0.70874,-0.61450,-0.30078;
18:13:07.837,-0.70947,-0.61597,-0.30615;
18:13:07.847,-0.71313,-0.61255,-0.31689;
18:13:07.857,-0.71729,-0.61450,-0.32935;
18:13:07.867,-0.71802,-0.61377,-0.33032;
18:13:07.877,-0.71802,-0.60474,-0.29248;
18:13:07.887,-0.71875,-0.60938,-0.29102;
18:13:07.897,-0.71802,-0.60889,-0.31787;
18:13:07.907,-0.71826,-0.60229,-0.30835;
18:13:07.917,-0.71533,-0.61011,-0.30054;
18:13:07.927,-0.71240,-0.60864,-0.29492;
18:13:07.937,-0.71362,-0.60913,-0.30151;
18:13:07.947,-0.71289,-0.61011,-0.30591;
18:13:07.957,-0.71216,-0.60938,-0.30493;
18:13:07.967,-0.71484,-0.60791,-0.30420;
18:13:07.977,-0.71338,-0.60864,-0.29932;
18:13:07.987,-0.71436,-0.60840,-0.29712;
18:13:07.997,-0.71582,-0.60840,-0.29126;
18:13:08.007,-0.71436,-0.60840,-0.28638;
18:13:08.017,-0.71313,-0.60645,-0.27905;
18:13:08.027,-0.71094,-0.60840,-0.26758;
18:13:08.037,-0.70874,-0.61011,-0.25977;
18:13:08.047,-0.71167,-0.61133,-0.25928;
18:13:08.057,-0.71655,-0.61206,-0.27173;
18:13:08.067,-0.71777,-0.60889,-0.28247;
18:13:08.077,-0.72095,-0.61182,-0.30225;
18:13:08.087,-0.73096,-0.61646,-0.34131;
18:13:08.097,-0.74365,-0.61670,-0.38452;
18:13:08.107,-0.74561,-0.59619,-0.27490;
18:13:08.117,-0.74634,-0.61060,-0.31226;
18:13:08.127,-0.74707,-0.61353,-0.35083;
18:13:08.137,-0.74829,-0.61670,-0.37720;
18:13:08.147,-0.73877,-0.60840,-0.36035;
18:13:08.157,-0.72241,-0.59985,-0.30811;
18:13:08.167,-0.72192,-0.60693,-0.26172;
18:13:08.177,-0.72021,-0.61328,-0.24976;
18:13:08.187,-0.71875,-0.61841,-0.27368;
18:13:08.197,-0.71484,-0.62109,-0.30396;
18:13:08.207,-0.70288,-0.61694,-0.31030;
18:13:08.217,-0.69580,-0.61499,-0.29492;
18:13:08.227,-0.69678,-0.61426,-0.28711;
18:13:08.237,-0.69873,-0.61841,-0.29272;
18:13:08.247,-0.70581,-0.62061,-0.31201;
18:13:08.257,-0.70605,-0.61865,-0.32300;
18:13:08.267,-0.70337,-0.61206,-0.32007;
18:13:08.277,-0.70215,-0.61401,-0.30518;
18:13:08.287,-0.70410,-0.61743,-0.28809;
18:13:08.297,-0.70581,-0.61084,-0.27905;
18:13:08.307,-0.70947,-0.61865,-0.27295;
18:13:08.317,-0.70605,-0.62280,-0.28491;
18:13:08.327,-0.70142,-0.62280,-0.29980;
18:13:08.337,-0.70679,-0.62378,-0.30933;
18:13:08.347,-0.70996,-0.62305,-0.31616;
18:13:08.357,-0.71680,-0.62085,-0.31299;
18:13:08.367,-0.72144,-0.61816,-0.30884;
18:13:08.377,-0.71411,-0.61475,-0.30420;
18:13:08.387,-0.70142,-0.60938,-0.29785;
18:13:08.397,-0.69775,-0.60449,-0.29346;
18:13:08.407,-0.70679,-0.59814,-0.28198;
18:13:08.417,-0.71289,-0.59570,-0.24438;
18:13:08.427,-0.70972,-0.59131,-0.20972;
18:13:08.437,-0.72070,-0.59155,-0.20679;
18:13:08.447,-0.71484,-0.59668,-0.22412;
18:13:08.457,-0.70044,-0.58008,-0.24023;
18:13:08.467,-0.70459,-0.56982,-0.23730;
18:13:08.477,-0.67603,-0.57227,-0.21997;
18:13:08.487,-0.69482,-0.58496,-0.22217;
18:13:08.497,-0.72925,-0.61426,-0.25024;
18:13:08.507,-0.72900,-0.61328,-0.30103;
18:13:08.517,-0.73828,-0.59814,-0.33496;
18:13:08.527,-0.73755,-0.58252,-0.35327;
18:13:08.537,-0.73853,-0.57471,-0.36060;
18:13:08.547,-0.74878,-0.57861,-0.36279;
18:13:08.557,-0.76074,-0.58179,-0.36548;
18:13:08.567,-0.76392,-0.58105,-0.36523;
18:13:08.577,-0.76807,-0.57813,-0.36938;
18:13:08.587,-0.78516,-0.57715,-0.36963;
18:13:08.597,-0.79785,-0.57715,-0.37744;
18:13:08.607,-0.79224,-0.57520,-0.39014;
18:13:08.617,-0.76172,-0.60132,-0.35669;
18:13:08.627,-0.75000,-0.58789,-0.28149;
18:13:08.637,-0.75488,-0.58521,-0.26563;
18:13:08.647,-0.75928,-0.59888,-0.28003;
18:13:08.657,-0.75366,-0.60352,-0.29175;
18:13:08.667,-0.73901,-0.59497,-0.26099;
18:13:08.677,-0.73901,-0.59155,-0.22803;
18:13:08.687,-0.73218,-0.58716,-0.20703;
18:13:08.697,-0.72363,-0.59692,-0.20654;
18:13:08.707,-0.73218,-0.60400,-0.24829;
18:13:08.717,-0.74097,-0.59497,-0.30103;
18:13:08.727,-0.73364,-0.59082,-0.31885;
18:13:08.737,-0.73511,-0.58276,-0.29517;
18:13:08.747,-0.73755,-0.58081,-0.25610;
18:13:08.757,-0.74268,-0.59497,-0.24756;
18:13:08.767,-0.75000,-0.59717,-0.27954;
18:13:08.777,-0.75049,-0.59741,-0.32349;
18:13:08.787,-0.75342,-0.59497,-0.35278;
18:13:08.797,-0.73413,-0.57813,-0.34033;
18:13:08.807,-0.72266,-0.56982,-0.28735;
18:13:08.817,-0.73389,-0.57324,-0.24048;
18:13:08.827,-0.74072,-0.57471,-0.23022;
18:13:08.837,-0.75195,-0.58691,-0.27441;
18:13:08.847,-0.75586,-0.59204,-0.32739;
18:13:08.857,-0.74561,-0.57520,-0.34229;
18:13:08.867,-0.73608,-0.56958,-0.32056;
18:13:08.877,-0.73267,-0.56885,-0.27832;
18:13:08.887,-0.74146,-0.57324,-0.25244;
18:13:08.897,-0.74341,-0.58325,-0.24072;
18:13:08.907,-0.74609,-0.58130,-0.25269;
18:13:08.917,-0.75317,-0.58447,-0.28516;
18:13:08.927,-0.74976,-0.58545,-0.30688;
18:13:08.937,-0.74927,-0.57739,-0.31958;
18:13:08.947,-0.74707,-0.57422,-0.32495;
18:13:08.957,-0.73706,-0.58716,-0.32349;
18:13:08.967,-0.72217,-0.59937,-0.32324;
18:13:08.977,-0.71655,-0.60645,-0.32568;
18:13:08.987,-0.72632,-0.60718,-0.33887;
18:13:08.997,-0.74072,-0.59912,-0.35229;
18:13:09.007,-0.74561,-0.58740,-0.34424;
18:13:09.017,-0.74219,-0.58032,-0.32251;
18:13:09.027,-0.74365,-0.57788,-0.30859;
18:13:09.037,-0.74023,-0.58008,-0.31201;
18:13:09.047,-0.73657,-0.58984,-0.33838;
18:13:09.057,-0.72925,-0.58960,-0.35596;
18:13:09.067,-0.71826,-0.57788,-0.34448;
18:13:09.077,-0.72021,-0.57178,-0.32031;
18:13:09.087,-0.72998,-0.57739,-0.31079;
18:13:09.097,-0.73071,-0.57690,-0.31909;
18:13:09.107,-0.73511,-0.57202,-0.34058;
18:13:09.117,-0.74023,-0.56396,-0.35156;
18:13:09.127,-0.74072,-0.54614,-0.34937;
18:13:09.137,-0.74731,-0.54810,-0.34937;
18:13:09.147,-0.73926,-0.54517,-0.33057;
18:13:09.157,-0.73242,-0.55542,-0.32153;
18:13:09.167,-0.73438,-0.55811,-0.31958;
18:13:09.177,-0.73657,-0.55518,-0.33301;
18:13:09.187,-0.73560,-0.54175,-0.34595;
18:13:09.197,-0.73560,-0.53564,-0.34985;
18:13:09.207,-0.74219,-0.53296,-0.34985;
18:13:09.217,-0.74927,-0.52759,-0.34912;
18:13:09.227,-0.75024,-0.53101,-0.34619;
18:13:09.237,-0.75220,-0.53027,-0.34521;
18:13:09.247,-0.75269,-0.53003,-0.33960;
18:13:09.257,-0.75342,-0.52734,-0.34351;
18:13:09.267,-0.75220,-0.52295,-0.35547;
18:13:09.277,-0.74512,-0.52441,-0.35059;
18:13:09.287,-0.74316,-0.52222,-0.35083;
18:13:09.297,-0.75244,-0.51807,-0.35962;
18:13:09.307,-0.76416,-0.51245,-0.38525;
18:13:09.317,-0.77222,-0.51074,-0.41699;
18:13:09.327,-0.77734,-0.50610,-0.42407;
18:13:09.337,-0.77563,-0.50244,-0.36890;
18:13:09.347,-0.78369,-0.50952,-0.36987;
18:13:09.357,-0.77490,-0.50195,-0.36694;
18:13:09.367,-0.76660,-0.50366,-0.38721;
18:13:09.377,-0.76270,-0.50464,-0.38623;
18:13:09.387,-0.75830,-0.50317,-0.38403;
18:13:09.397,-0.75708,-0.50391,-0.38501;
18:13:09.407,-0.75928,-0.50977,-0.38843;
18:13:09.417,-0.75903,-0.50903,-0.37720;
18:13:09.427,-0.75977,-0.50659,-0.35791;
18:13:09.437,-0.75806,-0.50977,-0.34521;
18:13:09.447,-0.76001,-0.51074,-0.33740;
18:13:09.457,-0.75977,-0.50952,-0.34595;
18:13:09.467,-0.76245,-0.50659,-0.38892;
18:13:09.477,-0.76636,-0.49951,-0.42993;
18:13:09.487,-0.76367,-0.49170,-0.42505;
18:13:09.497,-0.76440,-0.50562,-0.39258;
18:13:09.507,-0.76416,-0.50781,-0.36060;
18:13:09.517,-0.76099,-0.50879,-0.35083;
18:13:09.527,-0.75684,-0.51270,-0.35132;
18:13:09.537,-0.74731,-0.51099,-0.34473;
18:13:09.547,-0.74414,-0.51343,-0.34180;
18:13:09.557,-0.74829,-0.51172,-0.35742;
18:13:09.567,-0.74805,-0.50732,-0.38330;
18:13:09.577,-0.75122,-0.50928,-0.41602;
18:13:09.587,-0.75659,-0.50586,-0.42627;
18:13:09.597,-0.75342,-0.50244,-0.40625;
18:13:09.607,-0.75317,-0.51196,-0.37622;
18:13:09.617,-0.75439,-0.51147,-0.35376;
18:13:09.627,-0.75244,-0.51538,-0.35327;
18:13:09.637,-0.75049,-0.51611,-0.35107;
18:13:09.647,-0.75269,-0.51465,-0.34961;
18:13:09.657,-0.75806,-0.51440,-0.36548;
18:13:09.667,-0.76440,-0.51343,-0.41821;
18:13:09.677,-0.76563,-0.50854,-0.47046;
18:13:09.687,-0.76172,-0.50464,-0.47437;
18:13:09.697,-0.76343,-0.51318,-0.41821;
18:13:09.707,-0.76685,-0.51538,-0.34668;
18:13:09.717,-0.76929,-0.52954,-0.31763;
18:13:09.727,-0.76807,-0.53857,-0.33105;
18:13:09.737,-0.76831,-0.52783,-0.36987;
18:13:09.747,-0.76709,-0.52319,-0.40308;
18:13:09.757,-0.76294,-0.52026,-0.39575;
18:13:09.767,-0.75977,-0.52588,-0.36328;
18:13:09.777,-0.75708,-0.53418,-0.34326;
18:13:09.787,-0.75269,-0.54272,-0.33716;
18:13:09.797,-0.74316,-0.54590,-0.34521;
18:13:09.807,-0.73926,-0.54492,-0.36060;
18:13:09.817,-0.73340,-0.53760,-0.37891;
18:13:09.827,-0.72217,-0.54028,-0.38501;
18:13:09.837,-0.71240,-0.54883,-0.37646;
18:13:09.847,-0.70117,-0.55444,-0.35986;
18:13:09.857,-0.69751,-0.55859,-0.34937;
18:13:09.867,-0.69849,-0.55664,-0.34839;
18:13:09.877,-0.69873,-0.55688,-0.35352;
18:13:09.887,-0.69775,-0.55859,-0.36719;
18:13:09.897,-0.69360,-0.54956,-0.38037;
18:13:09.907,-0.69312,-0.53516,-0.38086;
18:13:09.917,-0.68628,-0.55200,-0.36035;
18:13:09.927,-0.67944,-0.57153,-0.33423;
18:13:09.937,-0.67407,-0.56982,-0.29907;
18:13:09.947,-0.66138,-0.57520,-0.26221;
18:13:09.957,-0.66309,-0.57202,-0.22949;
18:13:09.967,-0.66626,-0.57178,-0.22217;
18:13:09.977,-0.66748,-0.58032,-0.23804;
18:13:09.987,-0.67773,-0.57300,-0.28833;
18:13:09.997,-0.69482,-0.55518,-0.34961;
18:13:10.007,-0.69922,-0.56079,-0.39575;
18:13:10.017,-0.72192,-0.54443,-0.43774;
18:13:10.027,-0.75000,-0.56348,-0.38696;
18:13:10.037,-0.76709,-0.55005,-0.32495;
18:13:10.047,-0.78271,-0.53003,-0.29590;
18:13:10.057,-0.84155,-0.52686,-0.31152;
18:13:10.067,-0.89648,-0.50098,-0.35986;
18:13:10.077,-0.89282,-0.47192,-0.29468;
18:13:10.087,-0.83203,-0.55322,-0.19800;
18:13:10.097,-0.84497,-0.53052,-0.21753;
18:13:10.107,-0.83154,-0.57153,-0.20850;
18:13:10.117,-0.82300,-0.56543,-0.22217;
18:13:10.127,-0.80933,-0.56055,-0.22168;
18:13:10.137,-0.78882,-0.53467,-0.18701;
18:13:10.147,-0.79468,-0.54224,-0.18433;
18:13:10.157,-0.81982,-0.55225,-0.22705;
18:13:10.167,-0.83057,-0.52954,-0.29272;
18:13:10.177,-0.85059,-0.50708,-0.34888;
18:13:10.187,-0.84448,-0.51440,-0.33545;
18:13:10.197,-0.81641,-0.51855,-0.25659;
18:13:10.207,-0.82568,-0.54712,-0.18115;
18:13:10.217,-0.83057,-0.53027,-0.16211;
18:13:10.227,-0.84253,-0.48950,-0.12793;
18:13:10.237,-0.86279,-0.47876,-0.07861;
18:13:10.247,-0.87622,-0.47778,-0.10498;
18:13:10.257,-0.85718,-0.46875,-0.13354;
18:13:10.267,-0.82324,-0.48413,-0.12842;
18:13:10.277,-0.81299,-0.49048,-0.13843;
18:13:10.287,-0.81299,-0.49316,-0.16602;
18:13:10.297,-0.81616,-0.48999,-0.20117;
18:13:10.307,-0.82373,-0.47168,-0.20605;
18:13:10.317,-0.82080,-0.46924,-0.19580;
18:13:10.327,-0.79932,-0.48267,-0.17944;
18:13:10.337,-0.80664,-0.48364,-0.14258;
18:13:10.347,-0.83618,-0.46167,-0.14746;
18:13:10.357,-0.83496,-0.45679,-0.16187;
18:13:10.367,-0.84302,-0.44165,-0.17212;
18:13:10.377,-0.83691,-0.36987,-0.22144;
18:13:10.387,-0.87891,-0.35449,-0.20337;
18:13:10.397,-0.89917,-0.32422,-0.22437;
18:13:10.407,-0.91772,-0.31104,-0.25903;
18:13:10.417,-0.93994,-0.27881,-0.28369;
18:13:10.427,-0.93213,-0.24927,-0.28638;
18:13:10.437,-0.94751,-0.24365,-0.26318;
18:13:10.447,-0.94116,-0.23682,-0.23682;
18:13:10.457,-0.93433,-0.24927,-0.20728;
18:13:10.467,-0.94238,-0.25195,-0.14453;
18:13:10.477,-0.90088,-0.25269,-0.09399;
18:13:10.487,-0.89453,-0.27783,-0.08521;
18:13:10.497,-0.96094,-0.27466,-0.11011;
18:13:10.507,-0.99072,-0.20679,-0.16357;
18:13:10.517,-1.01660,-0.16382,-0.21533;
18:13:10.527,-1.00781,-0.10229,-0.22559;
18:13:10.537,-0.94409,-0.09497,-0.20776;
18:13:10.547,-0.92798,-0.21143,-0.18677;
18:13:10.557,-0.95239,-0.24487,-0.18091;
18:13:10.567,-0.96973,-0.19897,-0.22241;
18:13:10.577,-1.00464,-0.15527,-0.28369;
18:13:10.587,-1.03687,-0.08911,-0.27979;
18:13:10.597,-1.02637,-0.04199,-0.17676;
18:13:10.607,-1.10156,-0.05396,-0.14624;
18:13:10.617,-1.10059,0.03540,-0.12402;
18:13:10.627,-1.05615,0.06909,-0.11719;
18:13:10.637,-1.03979,-0.02661,-0.10718;
18:13:10.647,-0.98120,-0.08911,-0.11426;
18:13:10.657,-0.99658,-0.07886,-0.13184;
18:13:10.667,-1.04443,-0.04907,-0.12158;
18:13:10.677,-1.03345,0.00415,-0.08838;
18:13:10.687,-1.01050,0.05029,-0.07935;
18:13:10.697,-1.01123,0.07056,-0.11572;
18:13:10.707,-0.98315,0.06226,-0.14990;
18:13:10.717,-0.96777,0.03906,-0.15210;
18:13:10.727,-1.06079,0.01221,-0.00269;
18:13:10.737,-1.00903,0.09717,-0.06860;
18:13:10.747,-0.94800,0.08887,-0.08496;
18:13:10.757,-1.06250,0.07275,0.03833;
18:13:10.767,-1.05200,0.08691,0.03418;
18:13:10.777,-1.02490,0.10303,0.00635;
18:13:10.787,-0.99683,0.13062,-0.01904;
18:13:10.797,-1.00146,0.13037,-0.01343;
18:13:10.807,-1.02075,0.12622,0.01294;
18:13:10.817,-1.01831,0.15503,0.00562;
18:13:10.827,-0.99707,0.18433,-0.04858;
18:13:10.837,-0.98291,0.19702,-0.04907;
18:13:10.847,-0.98535,0.22559,-0.06519;
18:13:10.857,-1.00415,0.18018,-0.05493;
18:13:10.867,-1.01318,0.14136,-0.06689;
18:13:10.877,-0.96997,0.21143,-0.10522;
18:13:10.887,-0.95532,0.22437,-0.14355;
18:13:10.897,-0.97412,0.18335,-0.16821;
18:13:10.907,-0.96826,0.19800,-0.12769;
18:13:10.917,-0.96216,0.24341,-0.11035;
18:13:10.927,-0.97095,0.24292,-0.08105;
18:13:10.937,-0.98633,0.23535,-0.07202;
18:13:10.947,-0.99365,0.22339,-0.07886;
18:13:10.957,-1.01050,0.17871,-0.07617;
18:13:10.967,-1.03003,0.14282,-0.06714;
18:13:10.977,-1.02148,0.15234,-0.06519;
18:13:10.987,-1.00317,0.18262,-0.09180;
18:13:10.997,-0.96753,0.18066,-0.12354;
18:13:11.007,-0.96167,0.13135,-0.13965;
18:13:11.017,-1.00806,0.05469,-0.11768;
18:13:11.027,-1.02759,0.03076,-0.06348;
18:13:11.037,-1.00488,0.08276,-0.03003;
18:13:11.047,-0.96582,0.11987,-0.03296;
18:13:11.057,-0.98389,0.13208,-0.05396;
18:13:11.067,-1.04590,0.15356,-0.06494;
18:13:11.077,-1.03564,0.22290,-0.07715;
18:13:11.087,-0.98584,0.29688,-0.08911;
18:13:11.097,-0.92871,0.28687,-0.07544;
18:13:11.107,-0.92139,0.18872,-0.03711;
18:13:11.117,-0.98193,0.12500,0.00854;
18:13:11.127,-1.01123,0.00073,0.03662;
18:13:11.137,-1.05615,-0.10864,0.06519;
18:13:11.147,-1.07935,0.05371,0.07007;
18:13:11.157,-1.02856,0.25049,0.01392;
18:13:11.167,-0.95483,0.25098,-0.00610;
18:13:11.177,-0.94580,0.18091,-0.01758;
18:13:11.187,-0.95972,0.16724,-0.07275;
18:13:11.197,-0.94873,0.14063,-0.10352;
18:13:11.207,-0.97510,0.08716,-0.09351;
18:13:11.217,-0.98291,0.07275,-0.07129;
18:13:11.227,-0.98999,0.04492,-0.05225;
18:13:11.237,-0.99585,0.01465,-0.01563;
18:13:11.247,-0.95483,0.03540,0.04126;
18:13:11.257,-0.95947,0.04272,0.08301;
18:13:11.267,-0.98877,0.06152,0.10620;
18:13:11.277,-1.00806,0.11426,0.08765;
18:13:11.287,-1.01685,0.12549,0.07617;
18:13:11.297,-1.04395,0.06812,0.08984;
18:13:11.307,-1.04980,0.02759,0.10132;
18:13:11.317,-1.02148,0.05151,0.11401;
18:13:11.327,-0.99780,0.10889,0.12012;
18:13:11.337,-0.98438,0.14380,0.13672;
18:13:11.347,-0.97852,0.13281,0.14478;
18:13:11.357,-0.99829,0.07910,0.17041;
18:13:11.367,-1.02441,0.03296,0.23364;
18:13:11.377,-1.01465,0.05884,0.27393;
18:13:11.387,-0.98486,0.09692,0.30054;
18:13:11.397,-1.00293,0.06934,0.32983;
18:13:11.407,-1.05786,0.01318,0.38940;
18:13:11.417,-1.09375,-0.02319,0.39258;
18:13:11.427,-1.05664,0.01929,0.23999;
18:13:11.437,-0.99829,0.09961,0.08545;
18:13:11.447,-0.97119,0.16284,-0.05884;
18:13:11.457,-0.95728,0.19580,-0.16138;
18:13:11.467,-1.02173,0.06763,-0.14136;
18:13:11.477,-1.00513,0.05957,0.25659;
18:13:11.487,-1.07080,0.12817,0.35815;
18:13:11.497,-1.16016,0.04395,0.30371;
18:13:11.507,-1.14868,0.06665,0.28369;
18:13:11.517,-0.93677,-0.00586,0.27246;
18:13:11.527,-0.79858,-0.10767,0.30469;
18:13:11.537,-0.94849,-0.03223,0.29663;
18:13:11.547,-1.03955,0.08301,0.26807;
18:13:11.557,-0.94189,0.06934,0.22144;
18:13:11.567,-0.91187,0.09546,0.16992;
18:13:11.577,-0.92505,0.02271,0.18140;
18:13:11.587,-1.01880,-0.00342,0.18555;
18:13:11.597,-1.01953,0.08569,0.13916;
18:13:11.607,-0.81177,0.08887,0.11890;
18:13:11.617,-0.84131,-0.06006,0.20239;
18:13:11.627,-1.20264,-0.00415,0.17700;
18:13:11.637,-0.82031,0.10352,0.14087;
18:13:11.647,-0.74023,0.00562,0.14941;
18:13:11.657,-1.01831,-0.07983,0.16919;
18:13:11.667,-1.20020,0.03101,0.11011;
18:13:11.677,-0.98633,0.02319,0.15869;
18:13:11.687,-0.92139,0.01001,0.19897;
18:13:11.697,-0.95142,-0.00391,0.20020;
18:13:11.707,-0.96191,-0.01978,0.22388;
18:13:11.717,-0.98413,-0.03320,0.24072;
18:13:11.727,-0.96973,-0.03833,0.23706;
18:13:11.737,-0.94531,-0.04272,0.23950;
18:13:11.747,-0.96021,-0.04956,0.27686;
18:13:11.757,-1.00269,-0.03784,0.30103;
18:13:11.767,-1.00586,-0.02075,0.31738;
18:13:11.777,-0.97241,-0.00391,0.31885;
18:13:11.787,-0.95972,0.00220,0.30444;
18:13:11.797,-0.96460,-0.01123,0.26074;
18:13:11.807,-0.95728,-0.02954,0.25659;
18:13:11.817,-0.94922,-0.02441,0.21362;
18:13:11.827,-0.88989,-0.00854,0.11621;
18:13:11.837,-0.81543,-0.04150,0.06763;
18:13:11.847,-0.85107,-0.09790,0.07837;
18:13:11.857,-0.92725,-0.08130,0.08618;
18:13:11.867,-0.90210,-0.05347,0.11084;
18:13:11.877,-0.86743,-0.05518,0.17993;
18:13:11.887,-0.91895,-0.03589,0.19141;
18:13:11.897,-0.97949,-0.01074,0.17163;
18:13:11.907,-0.97925,0.01904,0.15820;
18:13:11.917,-0.99194,0.05225,0.14282;
18:13:11.927,-1.06177,0.07739,0.10522;
18:13:11.937,-1.08325,0.07764,0.08862;
18:13:11.947,-1.10107,0.11670,0.11865;
18:13:11.957,-1.11450,0.18140,0.10938;
18:13:11.967,-0.92969,0.12109,0.08862;
18:13:11.977,-0.77124,-0.02344,0.12769;
18:13:11.987,-0.91089,-0.01660,0.14551;
18:13:11.997,-1.05420,0.07568,0.13892;
18:13:12.007,-0.91650,0.08691,0.14233;
18:13:12.017,-0.97705,0.12402,0.19434;
18:13:12.027,-1.11011,0.31104,0.32886;
18:13:12.037,-1.08301,0.28540,0.25708;
18:13:12.047,-1.13965,0.14160,0.15625;
18:13:12.057,-1.18970,0.10229,0.03516;
18:13:12.067,-1.11230,0.13965,0.00098;
18:13:12.077,-0.93408,0.15356,0.00757;
18:13:12.087,-0.85864,0.13892,0.04883;
18:13:12.097,-0.86475,0.14673,0.10986;
18:13:12.107,-0.90649,0.18604,0.16724;
18:13:12.117,-0.97925,0.16455,0.16748;
18:13:12.127,-1.03223,0.11377,0.15625;
18:13:12.137,-0.99878,0.07275,0.11255;
18:13:12.147,-1.06641,0.17578,0.11816;
18:13:12.157,-0.92798,0.15186,0.13745;
18:13:12.167,-1.06616,0.12598,0.05811;
18:13:12.177,-1.05029,0.12769,0.08154;
18:13:12.187,-0.98315,0.14380,0.14307;
18:13:12.197,-0.99243,0.12817,0.22339;
18:13:12.207,-1.06470,0.07324,0.26318;
18:13:12.217,-1.13892,0.02490,0.29346;
18:13:12.227,-1.06934,0.05078,0.19409;
18:13:12.237,-0.88965,0.13965,0.08130;
18:13:12.247,-0.90576,0.25513,0.01025;
18:13:12.257,-1.04077,0.27686,-0.01465;
18:13:12.267,-1.07227,0.25732,0.02490;
18:13:12.277,-1.02490,0.20264,0.07642;
18:13:12.287,-1.02002,0.08057,0.03613;
18:13:12.297,-1.01245,0.07886,-0.00586;
18:13:12.307,-1.00293,0.11841,-0.02246;
18:13:12.317,-0.98657,0.17017,-0.03882;
18:13:12.327,-0.92944,0.19971,-0.05664;
18:13:12.337,-0.88721,0.19873,-0.05737;
18:13:12.347,-0.93286,0.22461,-0.04956;
18:13:12.357,-1.00732,0.23291,-0.05688;
18:13:12.367,-1.02100,0.19019,-0.06738;
18:13:12.377,-1.00073,0.13257,-0.07251;
18:13:12.387,-0.98389,0.09326,-0.04736;
18:13:12.397,-0.97217,0.07520,-0.01465;
18:13:12.407,-0.97681,0.08667,-0.01636;
18:13:12.417,-0.98486,0.12183,-0.03296;
18:13:12.427,-0.99268,0.15869,-0.05566;
18:13:12.437,-0.98828,0.17822,-0.05640;
18:13:12.447,-0.97583,0.17090,-0.00488;
18:13:12.457,-1.00171,0.15210,0.00586;
18:13:12.467,-1.02246,0.14941,-0.01196;
18:13:12.477,-1.01440,0.12646,-0.02393;
18:13:12.487,-1.00903,0.11719,-0.04102;
18:13:12.497,-0.98950,0.14819,-0.06250;
18:13:12.507,-0.96533,0.12622,-0.09058;
18:13:12.517,-0.96069,0.08887,-0.10034;
18:13:12.527,-0.95654,0.06836,-0.11108;
18:13:12.537,-0.95532,0.03101,-0.10278;
18:13:12.547,-0.96655,0.08496,-0.05859;
18:13:12.557,-1.00122,0.13672,-0.05420;
18:13:12.567,-1.01880,0.11694,-0.05469;
18:13:12.577,-1.01147,0.11328,-0.05103;
18:13:12.587,-1.01465,0.08984,-0.06055;
18:13:12.597,-1.00781,0.09863,-0.05664;
18:13:12.607,-1.00659,0.12817,-0.05688;
18:13:12.617,-1.00684,0.12695,-0.06689;
18:13:12.627,-1.00244,0.12012,-0.06958;
18:13:12.637,-1.00830,0.14209,-0.06665;
18:13:12.647,-1.00146,0.18115,-0.07666;
18:13:12.657,-0.98999,0.15527,-0.08862;
18:13:12.667,-0.97998,0.12134,-0.08447;
18:13:12.677,-0.98730,0.14258,-0.07031;
18:13:12.687,-0.99731,0.15161,-0.06055;
18:13:12.697,-1.00024,0.14673,-0.06226;
18:13:12.707,-1.00122,0.16943,-0.07227;
18:13:12.717,-0.99585,0.19409,-0.07349;
18:13:12.727,-0.99365,0.19019,-0.08325;
18:13:12.737,-0.99097,0.18311,-0.06787;
18:13:12.747,-0.98657,0.19897,-0.06885;
18:13:12.757,-0.98633,0.20825,-0.05859;
18:13:12.767,-0.99243,0.20874,-0.06689;
18:13:12.777,-0.98169,0.19995,-0.07617;
18:13:12.787,-0.97095,0.19604,-0.09497;
18:13:12.797,-0.96851,0.21216,-0.09082;
18:13:12.807,-0.96704,0.20850,-0.08472;
18:13:12.817,-0.97363,0.20801,-0.07813;
18:13:12.827,-0.97876,0.21826,-0.06641;
18:13:12.837,-0.97998,0.23218,-0.07129;
18:13:12.847,-0.98218,0.24829,-0.06494;
18:13:12.857,-0.98218,0.26514,-0.09766;
18:13:12.867,-0.97534,0.27246,-0.11328;
18:13:12.877,-0.95410,0.28345,-0.13013;
18:13:12.887,-0.95068,0.30103,-0.15088;
18:13:12.897,-0.96191,0.30933,-0.12061;
18:13:12.907,-0.96533,0.29419,-0.10010;
18:13:12.917,-0.98145,0.25854,-0.11426;
18:13:12.927,-0.98682,0.24976,-0.13867;
18:13:12.937,-0.97095,0.25146,-0.12769;
18:13:12.947,-0.97559,0.25342,-0.12646;
18:13:12.957,-0.97510,0.25464,-0.09790;
18:13:12.967,-0.97510,0.26123,-0.06641;
18:13:12.977,-0.97998,0.28979,-0.05737;
18:13:12.987,-0.96558,0.29126,-0.02515;
18:13:12.997,-0.97168,0.26123,-0.00684;
18:13:13.007,-0.98267,0.26758,-0.00513;
18:13:13.017,-0.97021,0.30151,-0.00854;
18:13:13.027,-0.95361,0.32300,-0.02271;
18:13:13.037,-0.94238,0.29761,-0.03833;
18:13:13.047,-0.94971,0.26245,-0.04492;
18:13:13.057,-0.96265,0.26294,-0.05640;
18:13:13.067,-0.96826,0.28467,-0.05957;
18:13:13.077,-0.98682,0.34351,-0.06934;
18:13:13.087,-0.99292,0.39795,-0.08447;
18:13:13.097,-1.04492,0.28662,-0.09180;
18:13:13.107,-1.03857,0.32690,-0.07886;
18:13:13.117,-1.00903,0.42041,-0.05542;
18:13:13.127,-0.99634,0.45068,-0.01685;
18:13:13.137,-1.00122,0.44507,0.00317;
18:13:13.147,-0.99756,0.45630,-0.01416;
18:13:13.157,-0.97705,0.47998,-0.02856;
18:13:13.167,-0.96143,0.49805,-0.00488;
18:13:13.177,-0.97119,0.48975,-0.01050;
18:13:13.187,-0.97241,0.45898,0.03760;
18:13:13.197,-0.99121,0.44141,0.08081;
18:13:13.207,-1.05347,0.35010,0.01563;
18:13:13.217,-1.04712,0.13672,0.06982;
18:13:13.227,-1.06396,-0.06885,0.15283;
18:13:13.237,-1.11694,-0.18701,0.10181;
18:13:13.247,-1.04614,-0.24194,0.14648;
18:13:13.257,-1.01245,-0.24097,0.30127;
18:13:13.267,-1.07104,-0.18677,0.40820;
18:13:13.277,-1.12695,-0.17065,0.39478;
18:13:13.287,-1.13892,-0.21777,0.31860;
18:13:13.297,-1.11646,-0.23730,0.29102;
18:13:13.307,-1.12231,-0.18677,0.28809;
18:13:13.317,-1.13647,-0.12329,0.29272;
18:13:13.327,-1.13525,-0.10107,0.26538;
18:13:13.337,-1.11841,-0.07251,0.21777;
18:13:13.347,-1.11279,-0.00366,0.18335;
18:13:13.357,-1.11011,0.07349,0.16089;
18:13:13.367,-1.08960,0.11450,0.12524;
18:13:13.377,-1.05444,0.12012,0.08203;
18:13:13.387,-1.02563,0.12085,0.04614;
18:13:13.397,-1.00024,0.14526,0.02441;
18:13:13.407,-0.96362,0.18945,0.01221;
18:13:13.417,-0.92358,0.19336,-0.01270;
18:13:13.427,-0.88232,0.17407,-0.03687;
18:13:13.437,-0.85229,0.19116,-0.05981;
18:13:13.447,-0.83081,0.23779,-0.07617;
18:13:13.457,-0.80273,0.25269,-0.08276;
18:13:13.467,-0.77979,0.20825,-0.09570;
18:13:13.477,-0.77637,0.14990,-0.09961;
18:13:13.487,-0.78564,0.12524,-0.09180;
18:13:13.497,-0.79297,0.08569,-0.06909;
18:13:13.507,-0.79443,0.01709,-0.06836;
18:13:13.517,-0.81323,-0.04541,-0.07666;
18:13:13.527,-0.83472,-0.08838,-0.07983;
18:13:13.537,-0.85718,-0.12061,-0.08105;
18:13:13.547,-0.87280,-0.14624,-0.08179;
18:13:13.557,-0.88867,-0.16675,-0.07397;
18:13:13.567,-0.92603,-0.17383,0.00195;
18:13:13.577,-0.96167,-0.01880,-0.32739;
18:13:13.587,-0.95728,1.52612,-0.70044;
18:13:13.597,-2.33252,0.90454,-1.56592;
18:13:13.607,-1.11719,0.94678,0.11450;
18:13:13.617,-1.28247,-0.06299,0.13550;
18:13:13.627,-0.94092,-0.13965,0.12744;
18:13:13.637,-0.75708,-0.05981,0.31299;
18:13:13.647,-0.96069,-0.07642,0.31836;
18:13:13.657,-0.94458,-0.25342,0.43091;
18:13:13.667,-0.89160,-0.32764,0.32739;
18:13:13.677,-0.91284,-0.10010,0.03442;
18:13:13.687,-0.93896,0.17212,-0.20313;
18:13:13.697,-0.93848,0.23389,-0.28076;
18:13:13.707,-0.95776,0.15698,-0.22021;
18:13:13.717,-1.01025,0.03882,-0.00244;
18:13:13.727,-1.01221,-0.02734,0.06592;
18:13:13.737,-1.01831,-0.05957,0.07495;
18:13:13.747,-1.01929,-0.06738,0.05420;
18:13:13.757,-1.02100,-0.03003,0.01855;
18:13:13.767,-1.02319,0.01147,-0.00635;
18:13:13.777,-1.02417,0.03638,-0.01416;
18:13:13.787,-1.02783,0.04541,-0.01685;
18:13:13.797,-1.02466,0.04639,-0.00952;
18:13:13.807,-1.01855,0.02856,-0.01147;
18:13:13.817,-1.00928,0.01831,-0.03003;
18:13:13.827,-0.99878,0.01758,-0.04224;
18:13:13.837,-1.00122,0.01929,-0.04810;
18:13:13.847,-1.00293,0.03003,-0.05518;
18:13:13.857,-0.99658,0.04248,-0.05811;
18:13:13.867,-0.99243,0.04712,-0.05566;
18:13:13.877,-0.99219,0.05127,-0.05518;
18:13:13.887,-0.98804,0.06055,-0.04932;
18:13:13.897,-0.98999,0.06909,-0.05078;
18:13:13.907,-0.99194,0.08374,-0.05957;
18:13:13.917,-0.98682,0.10620,-0.08496;
18:13:13.927,-0.98877,0.12720,-0.09937;
18:13:13.937,-0.99707,0.13306,-0.10010;
18:13:13.947,-1.00244,0.13965,-0.09961;
18:13:13.957,-1.00391,0.12817,-0.10278;
18:13:13.967,-0.99927,0.10742,-0.10620;
18:13:13.977,-0.99146,0.10132,-0.10718;
18:13:13.987,-0.98999,0.08203,-0.10425;
18:13:13.997,-0.99097,0.06592,-0.10034;
18:13:14.007,-0.99390,0.06982,-0.09912;
18:13:14.017,-0.99609,0.09570,-0.07275;
18:13:14.027,-1.00635,0.18555,-0.01831;
18:13:14.037,-1.03638,0.16724,-0.07007;
18:13:14.047,-0.98389,0.01050,-0.10596;
18:13:14.057,-0.93359,-0.07129,-0.12085;
18:13:14.067,-0.94507,-0.02295,-0.15454;
18:13:14.077,-0.95776,0.06201,-0.10278;
18:13:14.087,-0.99146,0.00684,-0.08740;
18:13:14.097,-1.00000,-0.05957,-0.09912;
18:13:14.107,-1.00439,-0.00659,-0.09888;
18:13:14.117,-1.01831,0.04443,-0.07104;
18:13:14.127,-1.02832,0.05835,-0.05322;
18:13:14.137,-1.03027,0.08594,-0.06396;
18:13:14.147,-1.02148,0.10742,-0.08179;
18:13:14.157,-1.01099,0.09497,-0.08594;
18:13:14.167,-1.00806,0.08545,-0.08276;
18:13:14.177,-1.00317,0.08594,-0.09424;
18:13:14.187,-0.99365,0.09570,-0.11621;
18:13:14.197,-0.99561,0.10083,-0.11890;
18:13:14.207,-1.00122,0.09595,-0.11499;
18:13:14.217,-1.00000,0.06299,-0.09668;
18:13:14.227,-1.00684,0.04590,-0.07910;
18:13:14.237,-0.99829,0.05542,-0.09204;
18:13:14.247,-0.99585,0.05371,-0.09619;
18:13:14.257,-1.00049,0.05396,-0.09448;
18:13:14.267,-0.99658,0.04639,-0.09521;
18:13:14.277,-1.00000,0.05103,-0.08740;
18:13:14.287,-1.00146,0.06055,-0.08447;
18:13:14.297,-1.00439,0.06348,-0.08496;
18:13:14.307,-1.00977,0.06055,-0.08813;
18:13:14.317,-0.99902,0.05444,-0.10107;
18:13:14.327,-0.99512,0.05908,-0.09839;
18:13:14.337,-1.00342,0.04712,-0.09082;
18:13:14.347,-1.00415,0.04956,-0.08105;
18:13:14.357,-1.00562,0.04395,-0.08350;
18:13:14.367,-1.00684,0.03833,-0.08008;
18:13:14.377,-1.00488,0.03491,-0.08667;
18:13:14.387,-0.99927,0.03931,-0.09082;
18:13:14.397,-1.00757,0.02881,-0.08984;
18:13:14.407,-1.00537,0.03125,-0.08716;
18:13:14.417,-1.00195,0.03003,-0.08618;
18:13:14.427,-1.00122,0.02783,-0.09058;
18:13:14.437,-1.00098,0.02686,-0.09106;
18:13:14.447,-1.00024,0.02466,-0.08862;
18:13:14.457,-1.00342,0.02490,-0.08838;
18:13:14.467,-1.00171,0.02930,-0.09180;
18:13:14.477,-1.00317,0.04004,-0.09619;
18:13:14.487,-1.00220,0.03125,-0.09741;
18:13:14.497,-0.99805,0.02905,-0.09961;
18:13:14.507,-0.99658,0.03662,-0.09497;
18:13:14.517,-0.99707,0.03760,-0.09009;
18:13:14.527,-1.00220,0.03735,-0.09253;
18:13:14.537,-1.00415,0.02832,-0.09644;
18:13:14.547,-1.00537,0.02930,-0.09131;
18:13:14.557,-1.00464,0.03125,-0.09253;
18:13:14.567,-1.00073,0.03638,-0.09766;
18:13:14.577,-0.99780,0.03955,-0.09253;
18:13:14.587,-0.99780,0.03516,-0.09375;
18:13:14.597,-0.99878,0.03516,-0.09595;
18:13:14.607,-0.99951,0.03906,-0.10059;
18:13:14.617,-1.00146,0.04492,-0.09912;
18:13:14.627,-1.00366,0.04028,-0.09863;
18:13:14.637,-1.00513,0.04248,-0.09351;
18:13:14.647,-1.00635,0.03491,-0.07788;
18:13:14.657,-1.00488,0.02515,-0.08569;
18:13:14.667,-1.00171,0.02954,-0.09570;
18:13:14.677,-0.99878,0.02881,-0.09521;
18:13:14.687,-0.99341,0.02515,-0.09692;
18:13:14.697,-0.99243,0.02515,-0.09619;
18:13:14.707,-0.99585,0.02783,-0.09351;
18:13:14.717,-0.99976,0.02490,-0.09302;
18:13:14.727,-1.00171,0.02637,-0.09229;
18:13:14.737,-1.00220,0.02881,-0.09546;
18:13:14.747,-1.00073,0.02930,-0.09497;
18:13:14.757,-1.00220,0.02930,-0.08716;
18:13:14.767,-1.00342,0.02002,-0.08765;
18:13:14.777,-1.00098,0.01831,-0.09058;
18:13:14.787,-0.99756,0.01880,-0.08740;
18:13:14.797,-0.99731,0.01538,-0.08521;
18:13:14.807,-0.99854,0.02563,-0.09131;
18:13:14.817,-1.00073,0.03052,-0.09692;
18:13:14.827,-1.00293,0.03271,-0.09326;
18:13:14.837,-1.00391,0.03760,-0.09253;
18:13:14.847,-1.00586,0.03760,-0.09106;
18:13:14.857,-1.00586,0.03101,-0.08496;
18:13:14.867,-1.00366,0.02563,-0.08545;
18:13:14.877,-1.00122,0.02246,-0.08862;
18:13:14.887,-1.00244,0.02271,-0.08911;
18:13:14.897,-1.00244,0.02466,-0.09521;
18:13:14.907,-1.00171,0.02441,-0.09204;
18:13:14.917,-0.99976,0.02148,-0.08691;
18:13:14.927,-0.99805,0.02197,-0.09058;
18:13:14.937,-0.99829,0.02686,-0.08862;
18:13:14.947,-1.00122,0.02148,-0.09058;
18:13:14.957,-1.00269,0.02026,-0.08887;
18:13:14.967,-1.00342,0.02246,-0.08716;
18:13:14.977,-1.00220,0.02173,-0.08936;
18:13:14.987,-0.99902,0.02026,-0.08789;
18:13:14.997,-0.99438,0.01245,-0.08862;
18:13:15.007,-0.99731,0.02612,-0.09302;
18:13:15.017,-1.00146,0.02490,-0.08740;
18:13:15.027,-0.99927,0.01563,-0.08716;
18:13:15.037,-1.00073,0.01221,-0.08667;
18:13:15.047,-1.00122,0.01709,-0.08447;
18:13:15.057,-1.00122,0.02271,-0.08447;
18:13:15.067,-0.99976,0.02148,-0.08740;
18:13:15.077,-1.00024,0.01929,-0.08594;
18:13:15.087,-1.00000,0.01904,-0.08521;
18:13:15.097,-1.00000,0.02026,-0.08276;
18:13:15.107,-0.99951,0.01978,-0.08398;
18:13:15.117,-1.00073,0.02002,-0.08423;
18:13:15.127,-1.00317,0.02612,-0.08252;
18:13:15.137,-1.00195,0.02148,-0.08154;
18:13:15.147,-1.00073,0.01782,-0.08130;
18:13:15.157,-1.00293,0.02295,-0.08984;
18:13:15.167,-1.00391,0.02246,-0.08813;
18:13:15.177,-1.00366,0.02271,-0.08130;
18:13:15.187,-1.00244,0.02368,-0.08374;
18:13:15.197,-1.00244,0.02539,-0.08447;
18:13:15.207,-1.00146,0.02905,-0.08618;
18:13:15.217,-1.00000,0.02563,-0.08789;
18:13:15.227,-0.99731,0.02783,-0.09082;
18:13:15.237,-0.99878,0.03076,-0.08765;
18:13:15.247,-1.00122,0.03198,-0.08960;
18:13:15.257,-1.00098,0.03247,-0.08862;
18:13:15.267,-1.00317,0.03003,-0.08667;
18:13:15.277,-1.00195,0.02930,-0.08960;
18:13:15.287,-1.00073,0.03198,-0.08740;
18:13:15.297,-0.99805,0.03296,-0.08398;
18:13:15.307,-1.00073,0.03516,-0.08667;
18:13:15.317,-1.00439,0.03540,-0.09082;
18:13:15.327,-1.00464,0.03320,-0.09229;
18:13:15.337,-1.00464,0.03540,-0.09424;
18:13:15.347,-1.00146,0.03491,-0.09521;
18:13:15.357,-1.00098,0.03320,-0.09497;
18:13:15.367,-1.00146,0.03760,-0.09351;
18:13:15.377,-1.00000,0.03638,-0.09375;
18:13:15.387,-1.00000,0.03613,-0.09375;
18:13:15.397,-0.99756,0.03613,-0.09644;
18:13:15.407,-0.99976,0.03369,-0.09058;
18:13:15.417,-1.00000,0.03638,-0.09375;
18:13:15.427,-1.00244,0.03979,-0.09521;
18:13:15.437,-1.00415,0.04614,-0.09692;
18:13:15.447,-1.00317,0.04175,-0.09985;
18:13:15.457,-1.00586,0.03662,-0.09595;
18:13:15.467,-1.00146,0.03735,-0.09155;
18:13:15.477,-1.00146,0.03516,-0.08813;
18:13:15.487,-1.00269,0.03296,-0.09009;
18:13:15.497,-1.00391,0.03394,-0.09351;
18:13:15.507,-1.00195,0.03589,-0.09839;
18:13:15.517,-0.99902,0.03735,-0.10181;
18:13:15.527,-0.99854,0.04053,-0.10254;
18:13:15.537,-0.99634,0.04346,-0.10156;
18:13:15.547,-1.00098,0.04395,-0.10083;
18:13:15.557,-1.00366,0.04419,-0.10132;
18:13:15.567,-1.00293,0.05176,-0.10254;
18:13:15.577,-1.00366,0.04834,-0.10474;
18:13:15.587,-1.00220,0.04761,-0.10864;
18:13:15.597,-1.00049,0.05322,-0.10303;
18:13:15.607,-0.99927,0.05200,-0.09937;
18:13:15.617,-0.99976,0.05005,-0.09741;
18:13:15.627,-1.00146,0.04614,-0.09814;
18:13:15.637,-1.00195,0.04639,-0.10376;
18:13:15.647,-0.99756,0.04590,-0.10718;
18:13:15.657,-0.99463,0.05127,-0.10986;
18:13:15.667,-0.99878,0.05591,-0.11157;
18:13:15.677,-0.99951,0.06128,-0.11353;
18:13:15.687,-1.00146,0.06201,-0.11108;
18:13:15.697,-1.00073,0.05493,-0.10498;
18:13:15.707,-0.99805,0.04980,-0.10449;
18:13:15.717,-0.99829,0.04712,-0.10278;
18:13:15.727,-0.99927,0.05078,-0.09961;
18:13:15.737,-1.00195,0.05298,-0.10645;
18:13:15.747,-1.00000,0.05615,-0.10986;
18:13:15.757,-0.99609,0.05835,-0.10645;
18:13:15.767,-0.99878,0.05518,-0.11084;
18:13:15.777,-0.99609,0.06592,-0.11304;
18:13:15.787,-1.00000,0.06909,-0.10938;
18:13:15.797,-1.00342,0.07056,-0.10962;
18:13:15.807,-1.00317,0.06860,-0.11401;
18:13:15.817,-1.00439,0.06787,-0.10962;
18:13:15.827,-1.00098,0.06665,-0.10864;
18:13:15.837,-0.99707,0.06860,-0.10693;
18:13:15.847,-0.99780,0.07007,-0.11011;
18:13:15.857,-0.99438,0.07080,-0.11157;
18:13:15.867,-0.99023,0.07324,-0.10815;
18:13:15.877,-0.99194,0.07349,-0.11377;
18:13:15.887,-0.99561,0.07520,-0.11523;
18:13:15.897,-0.99585,0.07275,-0.12280;
18:13:15.907,-0.99658,0.08179,-0.12646;
18:13:15.917,-0.99731,0.08228,-0.11670;
18:13:15.927,-1.00415,0.08545,-0.11548;
18:13:15.937,-1.00610,0.09497,-0.11987;
18:13:15.947,-1.00317,0.09131,-0.10547;
18:13:15.957,-1.00220,0.07837,-0.11108;
18:13:15.967,-0.99951,0.07593,-0.12354;
18:13:15.977,-1.00342,0.07788,-0.11768;
18:13:15.987,-1.00586,0.06787,-0.11084;
18:13:15.997,-1.00635,0.06348,-0.10815;
18:13:16.007,-1.00293,0.05908,-0.11499;
18:13:16.017,-0.99634,0.06543,-0.11621;
18:13:16.027,-0.99414,0.06592,-0.11597;
18:13:16.037,-0.99097,0.06592,-0.12036;
18:13:16.047,-0.99023,0.06836,-0.12158;
18:13:16.057,-0.98657,0.06274,-0.12280;
18:13:16.067,-0.98340,0.06299,-0.12915;
18:13:16.077,-0.98828,0.06860,-0.13379;
18:13:16.087,-0.98755,0.07104,-0.13892;
18:13:16.097,-0.98584,0.07642,-0.13745;
18:13:16.107,-0.98706,0.07739,-0.12988;
18:13:16.117,-0.98682,0.07666,-0.12915;
18:13:16.127,-0.98901,0.07959,-0.12769;
18:13:16.137,-0.98633,0.07129,-0.12939;
18:13:16.147,-0.98242,0.06519,-0.14380;
18:13:16.157,-0.97900,0.05933,-0.15015;
18:13:16.167,-0.97925,0.05518,-0.14746;
18:13:16.177,-0.98096,0.05933,-0.15356;
18:13:16.187,-0.97974,0.06763,-0.14917;
18:13:16.197,-0.98804,0.07251,-0.13379;
18:13:16.207,-0.98706,0.06787,-0.13428;
18:13:16.217,-0.99365,0.07422,-0.13501;
18:13:16.227,-1.00415,0.07422,-0.12964;
18:13:16.237,-1.00610,0.06885,-0.13403;
18:13:16.247,-1.01245,0.08081,-0.12500;
18:13:16.257,-1.01172,0.08228,-0.11865;
18:13:16.267,-1.00806,0.07544,-0.11987;
18:13:16.277,-1.00635,0.07007,-0.11694;
18:13:16.287,-1.00513,0.07739,-0.11304;
18:13:16.297,-1.00269,0.09326,-0.12134;
18:13:16.307,-1.00464,0.09839,-0.12915;
18:13:16.317,-0.99878,0.09863,-0.13452;
18:13:16.327,-0.99243,0.09521,-0.14673;
18:13:16.337,-0.99146,0.08081,-0.13525;
18:13:16.347,-0.99146,0.07275,-0.11938;
18:13:16.357,-0.99341,0.07715,-0.11060;
18:13:16.367,-0.99390,0.08301,-0.11157;
18:13:16.377,-0.99341,0.09717,-0.12231;
18:13:16.387,-0.99023,0.11108,-0.12573;
18:13:16.397,-0.99585,0.11255,-0.13062;
18:13:16.407,-0.99536,0.11426,-0.13477;
18:13:16.417,-0.99634,0.11646,-0.11353;
18:13:16.427,-1.00708,0.11279,-0.10352;
18:13:16.437,-1.00659,0.11987,-0.11914;
18:13:16.447,-0.99902,0.12549,-0.12964;
18:13:16.457,-0.99170,0.12061,-0.12842;
18:13:16.467,-0.97754,0.12256,-0.16772;
18:13:16.477,-0.97656,0.12939,-0.16943;
18:13:16.487,-0.98096,0.14575,-0.15820;
18:13:16.497,-0.98608,0.16138,-0.15649;
18:13:16.507,-0.97534,0.12793,-0.14478;
18:13:16.517,-0.96021,0.14038,-0.15674;
18:13:16.527,-0.97998,0.16284,-0.15527;
18:13:16.537,-0.98730,0.16797,-0.12671;
18:13:16.547,-1.00317,0.18774,-0.12622;
18:13:16.557,-1.01782,0.20068,-0.12573;
18:13:16.567,-1.01758,0.21558,-0.11060;
18:13:16.577,-1.02515,0.20825,-0.09399;
18:13:16.587,-1.03271,0.19556,-0.07300;
18:13:16.597,-1.04272,0.21460,-0.05566;
18:13:16.607,-1.10327,0.28320,0.03296;
18:13:16.617,-1.18042,0.32397,0.11230;
18:13:16.627,-1.22510,0.30420,0.21240;
18:13:16.637,-1.24438,0.29224,0.28711;
18:13:16.647,-1.25488,0.27393,0.31030;
18:13:16.657,-1.18481,0.21118,0.31592;
18:13:16.667,-1.09888,0.15991,0.31592;
18:13:16.677,-1.03223,0.07617,0.29175;
18:13:16.687,-0.97998,-0.00879,0.29907;
18:13:16.697,-0.96924,0.00659,0.30957;
18:13:16.707,-0.98120,0.08936,0.23706;
18:13:16.717,-0.94946,0.10840,0.17871;
18:13:16.727,-0.93604,0.03906,0.09399;
18:13:16.737,-0.91577,-0.10596,-0.04785;
18:13:16.747,-1.05688,-0.28833,-0.30713;
18:13:16.757,-1.39258,-0.91284,0.01147;
18:13:16.767,-1.17725,-0.58911,0.40601;
18:13:16.777,-1.18872,-0.07153,0.35718;
18:13:16.787,-1.02637,0.19385,0.22388;
18:13:16.797,-0.96167,0.27466,0.07642;
18:13:16.807,-1.04150,0.17285,0.08618;
18:13:16.817,-1.12085,0.02832,0.20874;
18:13:16.827,-1.10303,-0.06787,0.32104;
18:13:16.837,-1.02246,-0.08545,0.37988;
18:13:16.847,-0.97827,-0.05249,0.40015;
18:13:16.857,-0.98071,-0.01953,0.36035;
18:13:16.867,-1.00488,0.00000,0.33862;
18:13:16.877,-1.02124,0.00659,0.34717;
18:13:16.887,-1.04346,-0.02295,0.34839;
18:13:16.897,-1.09814,-0.04565,0.30493;
18:13:16.907,-1.13965,-0.03662,0.23486;
18:13:16.917,-1.14478,-0.02246,0.15894;
18:13:16.927,-1.13965,0.00171,0.10376;
18:13:16.937,-1.11377,0.03149,0.06958;
18:13:16.947,-1.09180,0.07617,0.04199;
18:13:16.957,-1.08472,0.12207,0.00391;
18:13:16.967,-1.06860,0.14990,-0.04224;
18:13:16.977,-1.04370,0.17725,-0.09448;
18:13:16.987,-1.02612,0.21338,-0.13135;
18:13:16.997,-1.01147,0.24219,-0.14697;
18:13:17.007,-0.99072,0.23657,-0.15308;
18:13:17.017,-0.96631,0.21997,-0.15991;
18:13:17.027,-0.94019,0.23389,-0.16577;
18:13:17.037,-0.92334,0.25269,-0.16821;
18:13:17.047,-0.91870,0.25464,-0.18091;
18:13:17.057,-0.90796,0.24316,-0.19434;
18:13:17.067,-0.89697,0.22119,-0.20361;
18:13:17.077,-0.89453,0.19019,-0.21777;
18:13:17.087,-0.90039,0.17798,-0.23193;
18:13:17.097,-0.90967,0.19580,-0.25952;
18:13:17.107,-0.90479,0.22461,-0.29492;
18:13:17.117,-0.89990,0.20410,-0.29102;
18:13:17.127,-0.92480,0.14063,-0.28857;
18:13:17.137,-0.95850,0.07471,-0.29443;
18:13:17.147,-0.97168,0.03247,-0.30249;
18:13:17.157,-0.97339,0.00830,-0.31567;
18:13:17.167,-0.98828,-0.03052,-0.33423;
18:13:17.177,-1.00635,-0.10962,-0.36597;
18:13:17.187,-1.01489,-0.22412,-0.41626;
18:13:17.197,-1.02563,-0.34106,-0.47339;
18:13:17.207,-1.02368,-0.52051,-0.50610;
18:13:17.217,-0.77759,0.06421,-0.47754;
18:13:17.227,-1.26611,1.44092,-0.43652;
18:13:17.237,-1.57935,0.27539,-0.87451;
18:13:17.247,-1.81421,-1.09497,-0.11914;
18:13:17.257,-1.20972,-0.26367,0.34375;
18:13:17.267,-0.89526,0.46899,0.30151;
18:13:17.277,-0.94214,0.48657,0.07910;
18:13:17.287,-0.93750,0.36182,0.16357;
18:13:17.297,-0.96387,0.29370,0.00684;
18:13:17.307,-0.89551,0.30542,-0.05444;
18:13:17.317,-0.97583,0.14258,-0.03906;
18:13:17.327,-1.05591,-0.00439,-0.01538;
18:13:17.337,-1.03247,-0.02710,-0.06470;
18:13:17.347,-0.96387,0.02466,-0.13892;
18:13:17.357,-0.91650,0.15894,-0.14429;
18:13:17.367,-0.94897,0.27393,-0.11938;
18:13:17.377,-0.99219,0.27954,-0.03979;
18:13:17.387,-1.03101,0.29053,0.00977;
18:13:17.397,-1.04443,0.28076,-0.02124;
18:13:17.407,-1.02344,0.19189,-0.03198;
18:13:17.417,-0.99878,0.15674,-0.02393;
18:13:17.427,-0.98120,0.16553,-0.04150;
18:13:17.437,-0.97559,0.16187,-0.04468;
18:13:17.447,-0.98853,0.15063,-0.04272;
18:13:17.457,-0.99731,0.15283,-0.03760;
18:13:17.467,-0.99634,0.13843,-0.03638;
18:13:17.477,-0.98267,0.10986,-0.04492;
18:13:17.487,-0.97949,0.09521,-0.05273;
18:13:17.497,-0.98657,0.08594,-0.05664;
18:13:17.507,-0.99561,0.07739,-0.05518;
18:13:17.517,-1.00415,0.06763,-0.04346;
18:13:17.527,-1.00781,0.06128,-0.04443;
18:13:17.537,-1.01050,0.05322,-0.04761;
18:13:17.547,-1.01587,0.04395,-0.02710;
18:13:17.557,-1.01929,0.02686,-0.00293;
18:13:17.567,-1.01611,0.02051,0.00830;
18:13:17.577,-1.01563,0.02319,0.01099;
18:13:17.587,-1.00830,0.01953,-0.03076;
18:13:17.597,-0.99780,0.01611,-0.10059;
18:13:17.607,-0.99170,-0.00269,-0.13013;
18:13:17.617,-0.98804,-0.02783,-0.11572;
18:13:17.627,-0.99048,-0.03101,-0.11206;
18:13:17.637,-0.99585,-0.02100,-0.11230;
18:13:17.647,-1.00244,-0.01343,-0.10107;
18:13:17.657,-1.01221,-0.00928,-0.09570;
18:13:17.667,-1.01855,-0.00537,-0.08643;
18:13:17.677,-1.02490,-0.01147,-0.06738;
18:13:17.687,-1.03760,-0.03101,-0.04712;
18:13:17.697,-1.05249,-0.04346,-0.04492;
18:13:17.707,-1.06030,-0.05029,-0.04053;
18:13:17.717,-1.06079,-0.07813,-0.02808;
18:13:17.727,-1.05103,-0.09497,-0.04126;
18:13:17.737,-1.04858,-0.07397,-0.06079;
18:13:17.747,-1.05933,-0.07007,-0.06836;
18:13:17.757,-1.05249,-0.07568,-0.06201;
18:13:17.767,-1.05200,-0.07593,-0.03223;
18:13:17.777,-1.06445,-0.08887,-0.01440;
18:13:17.787,-1.06836,-0.08154,-0.01440;
18:13:17.797,-1.09375,-0.07983,-0.01685;
18:13:17.807,-1.11035,-0.09424,-0.00708;
18:13:17.817,-1.11230,-0.09668,0.00171;
18:13:17.827,-1.11499,-0.10889,0.00610;
18:13:17.837,-1.12378,-0.10840,0.02295;
18:13:17.847,-1.14551,-0.07983,0.01660;
18:13:17.857,-1.16284,-0.07300,0.04932;
18:13:17.867,-1.19360,-0.06104,0.10596;
18:13:17.877,-1.23901,-0.03003,0.11328;
18:13:17.887,-1.28149,0.02686,0.11499;
18:13:17.897,-1.34302,0.09497,0.15991;
18:13:17.907,-1.41992,0.14404,0.18164;
18:13:17.917,-1.49268,0.21997,0.15430;
18:13:17.927,-1.56665,0.34131,0.14478;
18:13:17.937,-1.64697,0.46997,0.13574;
18:13:17.947,-1.83057,0.70093,-0.40356;
18:13:17.957,-1.99609,-0.32397,-0.51587;
18:13:17.967,-1.36523,-0.01221,-0.33008;
18:13:17.977,-1.10718,-0.18726,-0.42236;
18:13:17.987,-0.86475,-1.27661,0.09106;
18:13:17.997,-1.03198,-0.88574,-0.05444;
18:13:18.007,-0.83691,0.20068,-0.42627;
18:13:18.017,-0.46045,0.45264,-0.28076;
18:13:18.027,-0.25244,0.66162,-0.07593;
18:13:18.037,-0.15015,0.74927,0.00049;
18:13:18.047,-0.22754,0.54688,0.01685;
18:13:18.057,-0.33594,0.35913,-0.07251;
18:13:18.067,-0.36011,0.13818,-0.07031;
18:13:18.077,-0.37817,0.04028,-0.07202;
18:13:18.087,-0.43384,0.06592,-0.08887;
18:13:18.097,-0.49414,0.23315,-0.07861;
18:13:18.107,-0.52759,0.35767,-0.05005;
18:13:18.117,-0.57959,0.37305,-0.04370;
18:13:18.127,-0.65283,0.27441,-0.04077;
18:13:18.137,-0.71606,0.14087,-0.03003;
18:13:18.147,-0.76807,0.08228,-0.01489;
18:13:18.157,-0.82251,0.11597,0.00708;
18:13:18.167,-0.88574,0.15063,0.03125;
18:13:18.177,-0.94849,0.13306,0.04956;
18:13:18.187,-1.00146,0.06934,0.05811;
18:13:18.197,-1.03638,0.01270,0.07544;
18:13:18.207,-1.07910,-0.00610,0.08936;
18:13:18.217,-1.18970,-0.05200,0.11426;
18:13:18.227,-1.24683,-0.09766,0.13110;
18:13:18.237,-1.30273,-0.11841,0.13428;
18:13:18.247,-1.35449,-0.09180,0.12891;
18:13:18.257,-1.40576,-0.06348,0.11670;
18:13:18.267,-1.46558,-0.08032,0.09448;
18:13:18.277,-1.53223,-0.13232,0.06812;
18:13:18.287,-1.61401,-0.20264,0.03979;
18:13:18.297,-1.70801,-0.21802,0.01758;
18:13:18.307,-1.82129,-0.19873,-0.00220;
18:13:18.317,-1.94971,-0.25098,-0.04736;
18:13:18.327,-2.00903,-0.39331,-0.11646;
18:13:18.337,-1.95190,-0.53906,-0.26294;
18:13:18.347,-1.84595,-0.67529,-0.41772;
18:13:18.357,-1.77026,-0.88794,-0.41870;
18:13:18.367,-1.72144,-1.34692,-0.14136;
18:13:18.377,-1.58301,-2.05640,0.22729;
18:13:18.387,-1.17896,-2.52539,0.35083;
18:13:18.397,-0.98560,-2.42236,0.25366;
18:13:18.407,-1.21826,-1.94531,0.22192;
18:13:18.417,-1.60449,-1.26636,0.16699;
18:13:18.427,-1.33350,-1.26440,0.16797;
18:13:18.437,-0.85352,-0.36060,0.79590;
18:13:18.447,-1.38794,1.21997,0.34888;
18:13:18.457,-1.91675,1.19995,-0.67578;
18:13:18.467,-2.02710,0.41895,-0.30347;
18:13:18.477,-2.37305,-0.57373,0.07251;
18:13:18.487,-2.22485,-0.90503,0.21899;
18:13:18.497,-1.15161,-0.14893,0.45630;
18:13:18.507,-0.51392,0.30811,0.11035;
18:13:18.517,-0.98120,-0.10815,-0.10840;
18:13:18.527,-1.06860,0.00806,-0.02832;
18:13:18.537,-1.07300,0.00708,-0.03467;
18:13:18.547,-1.06543,0.00366,-0.05396;
18:13:18.557,-1.05811,-0.00098,-0.06738;
18:13:18.567,-1.03394,-0.02393,-0.08643;
18:13:18.577,-1.01294,-0.05151,-0.08716;
18:13:18.587,-0.99390,-0.07837,-0.07959;
18:13:18.597,-0.98364,-0.06738,-0.11792;
18:13:18.607,-0.97925,-0.03394,-0.11328;
18:13:18.617,-0.96997,-0.03320,-0.13159;
18:13:18.627,-0.96558,-0.05078,-0.10278;
18:13:18.637,-0.99487,-0.06079,-0.07471;
18:13:18.647,-1.00317,-0.04761,-0.08911;
18:13:18.657,-1.01221,-0.03345,-0.11743;
18:13:18.667,-1.01367,-0.00684,-0.14111;
18:13:18.677,-1.01392,0.01074,-0.14966;
18:13:18.687,-1.00122,0.02393,-0.15381;
18:13:18.697,-0.99316,0.04224,-0.17285;
18:13:18.707,-0.99683,0.04395,-0.20020;
18:13:18.717,-0.99536,0.04102,-0.22388;
18:13:18.727,-1.00366,0.04224,-0.23730;
18:13:18.737,-1.01929,0.02173,-0.23022;
18:13:18.747,-1.04834,0.00317,-0.21265;
18:13:18.757,-1.08789,0.00098,-0.18311;
18:13:18.767,-1.12085,-0.02100,-0.13770;
18:13:18.777,-1.13184,-0.03271,-0.10107;
18:13:18.787,-1.14209,-0.04980,-0.07544;
18:13:18.797,-1.17627,-0.06616,-0.05322;
18:13:18.807,-1.20776,-0.05713,-0.04004;
18:13:18.817,-1.24316,-0.01978,-0.01904;
18:13:18.827,-1.26416,0.01782,0.02637;
18:13:18.837,-1.28467,0.04810,0.04297;
18:13:18.847,-1.37427,0.12817,-0.01050;
18:13:18.857,-1.50586,0.26489,-0.03613;
18:13:18.867,-1.67407,0.40356,-0.00854;
18:13:18.877,-1.87500,0.53052,0.02783;
18:13:18.887,-2.02954,0.74512,0.15527;
18:13:18.897,-2.16187,1.03467,0.33228;
18:13:18.907,-2.28516,1.23950,0.46753;
18:13:18.917,-2.34521,1.22656,0.30493;
18:13:18.927,-2.27173,0.71973,-0.02002;
18:13:18.937,-1.96680,-0.25586,-0.10571;
18:13:18.947,-1.62671,-0.80078,-0.32227;
18:13:18.957,-1.47437,-0.62354,-0.71143;
18:13:18.967,-1.36426,-0.44238,-0.58691;
18:13:18.977,-1.10254,-0.61597,-0.24585;
18:13:18.987,-0.74707,-0.91406,-0.15967;
18:13:18.997,-0.58203,-1.32031,0.11353;
18:13:19.007,-0.66748,-0.97534,0.38281;
18:13:19.017,-0.80566,0.43726,-0.30542;
18:13:19.027,-0.43555,1.47803,-0.46582;
18:13:19.037,0.24438,2.24927,-0.37207;
18:13:19.047,0.48877,2.16821,-0.35962;
18:13:19.057,0.17188,1.08301,-0.16260;
18:13:19.067,-0.28979,0.12915,-0.13379;
18:13:19.077,-0.41382,-0.25928,0.07471;
18:13:19.087,-0.38721,-0.06714,0.03687;
18:13:19.097,-0.43555,0.25024,-0.04272;
18:13:19.107,-0.51001,0.43726,-0.17114;
18:13:19.117,-0.55127,0.38184,-0.18848;
18:13:19.127,-0.58154,0.22827,-0.17505;
18:13:19.137,-0.64478,0.06177,-0.15430;
18:13:19.147,-0.74097,-0.02808,-0.16528;
18:13:19.157,-0.84766,-0.05811,-0.18433;
18:13:19.167,-0.96143,-0.04321,-0.19678;
18:13:19.177,-1.04321,-0.06152,-0.16040;
18:13:19.187,-1.09155,-0.08374,-0.14429;
18:13:19.197,-1.22534,-0.07080,-0.10596;
18:13:19.207,-1.29126,-0.12988,-0.06299;
18:13:19.217,-1.33765,-0.19434,-0.02002;
18:13:19.227,-1.37744,-0.22559,0.01099;
18:13:19.237,-1.40503,-0.22241,0.01880;
18:13:19.247,-1.45044,-0.18066,-0.00830;
18:13:19.257,-1.54810,-0.16016,-0.07642;
18:13:19.267,-1.71191,-0.22900,-0.17725;
18:13:19.277,-1.93799,-0.38184,-0.25977;
18:13:19.287,-2.13281,-0.53174,-0.37207;
18:13:19.297,-2.21875,-0.70410,-0.52686;
18:13:19.307,-2.14307,-0.87671,-0.61230;
18:13:19.317,-2.02661,-0.97803,-0.69751;
18:13:19.327,-1.96997,-1.22192,-0.74316;
18:13:19.337,-1.79126,-1.72119,-0.48950;
18:13:19.347,-1.46997,-2.31006,-0.02319;
18:13:19.357,-1.15967,-2.58984,0.10352;
18:13:19.367,-1.32056,-1.95630,0.16211;
18:13:19.377,-1.25586,1.45386,0.72314;
18:13:19.387,-1.68042,0.32495,-0.20532;
18:13:19.397,-2.57471,-0.54419,-0.19678;
18:13:19.407,-1.28174,-0.24756,0.45923;
18:13:19.417,-0.44849,0.04248,0.11938;
18:13:19.427,-0.35791,0.18652,-0.18359;
18:13:19.437,-0.74731,-0.13330,0.06958;
18:13:19.447,-1.06836,-0.35425,0.02344;
18:13:19.457,-1.02515,0.02539,-0.01978;
18:13:19.467,-1.09497,0.08472,0.11621;
18:13:19.477,-1.22412,-0.07056,0.14063;
18:13:19.487,-1.13086,-0.13354,0.10254;
18:13:19.497,-1.03564,-0.06934,0.00659;
18:13:19.507,-1.00024,-0.03564,-0.00220;
18:13:19.517,-1.03125,0.00024,-0.02319;
18:13:19.527,-1.04126,0.06592,-0.05664;
18:13:19.537,-1.02222,0.05957,-0.05322;
18:13:19.547,-1.02393,0.05249,-0.06030;
18:13:19.557,-1.01050,0.04346,-0.06738;
18:13:19.567,-1.00586,0.01855,-0.05566;
18:13:19.577,-1.01099,-0.00317,-0.04321;
18:13:19.587,-1.02100,-0.02515,-0.03711;
18:13:19.597,-1.02710,-0.03662,-0.04907;
18:13:19.607,-1.00977,-0.02319,-0.07080;
18:13:19.617,-1.00757,-0.01587,-0.07910;
18:13:19.627,-0.99731,-0.01929,-0.09766;
18:13:19.637,-0.97266,-0.01343,-0.11426;
18:13:19.647,-0.95679,-0.01489,-0.10693;
18:13:19.657,-0.94824,-0.03418,-0.09229;
18:13:19.667,-0.91260,-0.06006,-0.09155;
18:13:19.677,-0.90332,-0.07544,-0.07397;
18:13:19.687,-0.93506,-0.07397,-0.07251;
18:13:19.697,-0.95288,-0.07031,-0.08521;
18:13:19.707,-0.96924,-0.06177,-0.08398;
18:13:19.717,-0.97485,-0.04053,-0.07690;
18:13:19.727,-0.99463,-0.02515,-0.07520;
18:13:19.737,-1.02661,-0.01855,-0.07935;
18:13:19.747,-1.04858,-0.00366,-0.07300;
18:13:19.757,-1.05713,-0.01392,-0.06177;
18:13:19.767,-1.05298,-0.03442,-0.05981;
18:13:19.777,-1.06348,-0.02759,-0.07422;
18:13:19.787,-1.10840,-0.01465,-0.06689;
18:13:19.797,-1.14014,-0.03101,-0.04834;
18:13:19.807,-1.15649,-0.03149,-0.02344;
18:13:19.817,-1.21362,-0.01929,0.00024;
18:13:19.827,-1.25977,-0.04419,0.05444;
18:13:19.837,-1.27197,-0.05859,0.09375;
18:13:19.847,-1.31494,-0.02686,0.05884;
18:13:19.857,-1.39990,0.05322,-0.02148;
18:13:19.867,-1.49365,0.15454,-0.07813;
18:13:19.877,-1.58276,0.23828,-0.02612;
18:13:19.887,-1.70874,0.27563,0.07178;
18:13:19.897,-1.85938,0.34082,0.12085;
18:13:19.907,-1.98926,0.47925,0.20361;
18:13:19.917,-2.09424,0.66748,0.35571;
18:13:19.927,-2.20923,0.95410,0.44067;
18:13:19.937,-2.31396,1.24731,0.35669;
18:13:19.947,-2.32202,1.25952,-0.00488;
18:13:19.957,-2.13452,0.60620,-0.29980;
18:13:19.967,-1.74780,-0.32202,-0.39087;
18:13:19.977,-1.36694,-0.57373,-0.60059;
18:13:19.987,-1.06616,-0.42969,-0.68115;
18:13:19.997,-0.78394,-0.74292,-0.44971;
18:13:20.007,-0.53589,-1.40015,-0.00220;
18:13:20.017,-0.68433,-1.70654,0.16064;
18:13:20.027,-0.95239,-1.38770,0.28467;
18:13:20.037,-0.93921,-0.02002,-0.00293;
18:13:20.047,-0.68384,0.99512,-0.45557;
18:13:20.057,-0.08789,1.47632,-0.44067;
18:13:20.067,0.37769,1.76782,-0.37402;
18:13:20.077,0.29810,1.06982,-0.18555;
18:13:20.087,-0.08667,0.15088,-0.05884;
18:13:20.097,-0.33887,-0.38428,0.01587;
18:13:20.107,-0.36987,-0.35181,0.02319;
18:13:20.117,-0.36572,-0.01440,-0.06689;
18:13:20.127,-0.41235,0.32666,-0.17529;
18:13:20.137,-0.49634,0.40845,-0.18652;
18:13:20.147,-0.67773,-0.07666,-0.11011;
18:13:20.157,-0.74609,-0.31274,-0.10254;
18:13:20.167,-0.91724,-0.25488,-0.05444;
18:13:20.177,-0.97485,-0.35083,-0.05493;
18:13:20.187,-1.04785,-0.38818,0.02368;
18:13:20.197,-1.07153,-0.38184,0.07471;
18:13:20.207,-1.09888,-0.37646,0.11060;
18:13:20.217,-1.13330,-0.36353,0.09766;
18:13:20.227,-1.16870,-0.34985,0.04126;
18:13:20.237,-1.18237,-0.35840,-0.00537;
18:13:20.247,-1.19067,-0.36157,-0.04541;
18:13:20.257,-1.20776,-0.33228,-0.08032;
18:13:20.267,-1.24292,-0.30469,-0.12915;
18:13:20.277,-1.34863,-0.42358,-0.29907;
18:13:20.287,-1.36499,-0.48169,-0.29321;
18:13:20.297,-1.39331,-0.59717,-0.31641;
18:13:20.307,-1.43286,-0.76660,-0.38867;
18:13:20.317,-1.42920,-0.95728,-0.54077;
18:13:20.327,-1.34131,-1.07861,-0.65381;
18:13:20.337,-1.18896,-1.09546,-0.60229;
18:13:20.347,-1.12061,-0.96265,-0.52563;
18:13:20.357,-1.13623,-0.72095,-0.56812;
18:13:20.367,-1.13379,-0.55786,-0.71582;
18:13:20.377,-1.19385,-0.81274,-0.72729;
18:13:20.387,-1.30908,-1.79956,-0.07861;
18:13:20.397,-1.32837,-2.80396,-0.21484;
18:13:20.407,-1.29517,-3.82324,0.00708;
18:13:20.417,-1.92822,-3.55737,-0.45117;
18:13:20.427,-2.03101,-0.15063,-1.78857;
18:13:20.437,-0.77466,2.31201,-1.20020;
18:13:20.447,-0.30908,2.31152,-0.62744;
18:13:20.457,-1.05298,0.90234,-0.42822;
18:13:20.467,-1.81738,-0.25464,-0.13599;
18:13:20.477,-1.98071,0.31201,1.02051;
18:13:20.487,-1.93555,0.53906,1.78613;
18:13:20.497,-1.93970,0.13940,0.89209;
18:13:20.507,-1.48706,-0.23828,0.30298;
18:13:20.517,-0.89160,-0.06592,0.10742;
18:13:20.527,-0.68115,0.14771,-0.13477;
18:13:20.537,-0.77661,0.01587,-0.22168;
18:13:20.547,-0.84814,-0.09937,-0.22266;
18:13:20.557,-0.82471,-0.13184,-0.08472;
18:13:20.567,-0.89233,-0.11646,-0.02441;
18:13:20.577,-0.97949,-0.09229,-0.00220;
18:13:20.587,-1.00659,-0.10962,-0.01709;
18:13:20.597,-1.00757,-0.12305,-0.02930;
18:13:20.607,-1.01245,-0.07910,0.02051;
18:13:20.617,-1.01709,-0.00879,0.11255;
18:13:20.627,-1.02148,0.03345,0.18286;
18:13:20.637,-1.05054,0.04590,0.24268;
18:13:20.647,-1.05151,0.11890,0.16577;
18:13:20.657,-1.02319,0.14087,0.12549;
18:13:20.667,-1.01196,0.14136,0.07471;
18:13:20.677,-0.99292,0.12231,0.04370;
18:13:20.687,-0.97144,0.11816,0.03711;
18:13:20.697,-0.96240,0.12354,0.03613;
18:13:20.707,-0.96313,0.11938,0.03662;
18:13:20.717,-0.98438,0.13086,0.04395;
18:13:20.727,-1.00610,0.13159,0.03638;
18:13:20.737,-1.00513,0.14331,0.01978;
18:13:20.747,-0.99170,0.16870,-0.00854;
18:13:20.757,-0.97339,0.19141,-0.02588;
18:13:20.767,-0.96631,0.22681,-0.03491;
18:13:20.777,-0.97412,0.23315,-0.06641;
18:13:20.787,-0.97876,0.20239,-0.08691;
18:13:20.797,-0.97412,0.18604,-0.09692;
18:13:20.807,-1.00000,0.15308,-0.00610;
18:13:20.817,-1.01978,0.11914,0.01392;
18:13:20.827,-1.02783,0.09741,0.02246;
18:13:20.837,-1.03931,0.08594,0.02563;
18:13:20.847,-1.04297,0.08765,0.00122;
18:13:20.857,-1.03394,0.10840,-0.04590;
18:13:20.867,-1.01855,0.16162,-0.08838;
18:13:20.877,-1.02808,0.26465,-0.10229;
18:13:20.887,-1.07373,0.23340,-0.06421;
18:13:20.897,-1.11768,0.15381,-0.00269;
18:13:20.907,-1.13623,0.17822,0.05200;
18:13:20.917,-1.17114,0.16089,0.09253;
18:13:20.927,-1.19116,0.13281,0.12012;
18:13:20.937,-1.16992,0.08374,0.16919;
18:13:20.947,-1.23486,0.13330,0.13281;
18:13:20.957,-1.35376,0.18921,0.09839;
18:13:20.967,-1.36060,0.20972,0.16797;
18:13:20.977,-1.24341,0.16699,0.29321;
18:13:20.987,-1.14087,0.09253,0.26050;
18:13:20.997,-1.05396,-0.04272,0.16870;
18:13:21.007,-1.01050,-0.14624,0.14526;
18:13:21.017,-0.92554,-0.18555,0.19043;
18:13:21.027,-0.80688,-0.40503,0.02271;
18:13:21.037,-0.65771,-0.77832,0.05420;
18:13:21.047,-0.50806,-1.05981,0.18408;
18:13:21.057,-0.46338,-1.04517,0.31055;
18:13:21.067,-0.50879,-0.71899,0.38379;
18:13:21.077,-0.49829,-0.22656,0.27686;
18:13:21.087,-0.41309,0.28003,0.22583;
18:13:21.097,-0.34814,0.45532,0.15137;
18:13:21.107,-0.36816,0.21265,0.10791;
18:13:21.117,-0.46753,0.16162,0.15112;
18:13:21.127,-0.48828,0.31079,0.11987;
18:13:21.137,-0.52051,0.20801,0.15332;
18:13:21.147,-0.56372,0.03687,0.21851;
18:13:21.157,-0.62354,-0.01074,0.26880;
18:13:21.167,-0.68774,0.00317,0.26880;
18:13:21.177,-0.75000,-0.04199,0.22192;
18:13:21.187,-0.78125,-0.12476,0.19824;
18:13:21.197,-0.84424,-0.12891,0.22363;
18:13:21.207,-0.96338,-0.17139,0.15723;
18:13:21.217,-1.07251,-0.33081,-0.00171;
18:13:21.227,-1.13037,-0.42407,-0.04712;
18:13:21.237,-1.31152,-0.38306,-0.03857;
18:13:21.247,-1.40039,-0.43018,-0.18140;
18:13:21.257,-1.43237,-0.51074,-0.30664;
18:13:21.267,-1.57202,-0.82642,-0.23071;
18:13:21.277,-1.69238,-1.34448,-0.43359;
18:13:21.287,-1.46533,-1.38013,-0.39990;
18:13:21.297,-1.20508,-0.43262,-0.29883;
18:13:21.307,-1.05664,0.70093,-0.79370;
18:13:21.317,-0.81421,1.25977,-0.85645;
18:13:21.327,-0.91040,1.09814,-0.77661;
18:13:21.337,-1.18945,0.61401,-0.70801;
18:13:21.347,-1.28711,0.37305,-0.26392;
18:13:21.357,-1.30322,0.20337,0.09692;
18:13:21.367,-1.24316,0.10693,0.48706;
18:13:21.377,-1.20020,0.04688,0.78223;
18:13:21.387,-1.16699,0.02661,0.79346;
18:13:21.397,-1.10596,0.11890,0.66455;
18:13:21.407,-0.88916,0.10107,-0.14136;
18:13:21.417,-0.90063,0.06494,-0.07617;
18:13:21.427,-0.93774,0.02563,0.01733;
18:13:21.437,-0.98657,0.00977,0.09888;
18:13:21.447,-1.01611,-0.01929,0.17041;
18:13:21.457,-1.02612,-0.05615,0.21899;
18:13:21.467,-1.02783,-0.05103,0.20532;
18:13:21.477,-1.01660,-0.01929,0.15649;
18:13:21.487,-1.00708,0.02222,0.10596;
18:13:21.497,-1.00684,0.06812,0.04688;
18:13:21.507,-1.01025,0.10327,0.01660;
18:13:21.517,-1.01270,0.12158,0.03076;
18:13:21.527,-1.01929,0.12915,0.05200;
18:13:21.537,-1.02344,0.11523,0.08740;
18:13:21.547,-1.02026,0.07886,0.10303;
18:13:21.557,-1.01733,0.06763,0.09082;
18:13:21.567,-1.01221,0.08179,0.10132;
18:13:21.577,-1.00562,0.08887,0.09058;
18:13:21.587,-0.99243,0.09961,0.06714;
18:13:21.597,-0.98877,0.11572,0.04834;
18:13:21.607,-0.99194,0.11011,0.02246;
18:13:21.617,-0.99194,0.08691,0.04077;
18:13:21.627,-0.99585,0.06616,0.06274;
18:13:21.637,-1.00146,0.06909,0.06763;
18:13:21.647,-1.00854,0.06812,0.07324;
18:13:21.657,-1.00903,0.04297,0.06421;
18:13:21.667,-1.00073,0.05103,0.05640;
18:13:21.677,-1.01074,0.04321,0.04150;
18:13:21.687,-1.01172,0.02075,0.05176;
18:13:21.697,-1.00464,0.02295,0.05688;
18:13:21.707,-0.99707,0.02905,0.05811;
18:13:21.717,-0.99634,0.03320,0.05884;
18:13:21.727,-0.99902,0.03540,0.05859;
18:13:21.737,-0.99829,0.03296,0.05322;
18:13:21.747,-0.99512,0.02759,0.05615;
18:13:21.757,-0.99536,0.03394,0.04736;
18:13:21.767,-0.99268,0.04565,0.04028;
18:13:21.777,-0.99390,0.05151,0.03467;
18:13:21.787,-1.00000,0.04321,0.03003;
18:13:21.797,-1.00391,0.04126,0.03760;
18:13:21.807,-1.00610,0.04102,0.04346;
18:13:21.817,-1.00391,0.04077,0.04688;
18:13:21.827,-1.00391,0.03687,0.04395;
18:13:21.837,-1.00488,0.02954,0.04297;
18:13:21.847,-1.00024,0.02783,0.04541;
18:13:21.857,-0.99976,0.02124,0.04248;
18:13:21.867,-1.00269,0.02441,0.04053;
18:13:21.877,-1.00635,0.03320,0.03638;
18:13:21.887,-1.00830,0.03638,0.03540;
18:13:21.897,-1.00903,0.03979,0.03320;
18:13:21.907,-1.00879,0.04395,0.02930;
18:13:21.917,-1.00806,0.03882,0.03320;
18:13:21.927,-1.00928,0.03638,0.03882;
18:13:21.937,-1.00757,0.03564,0.03687;
18:13:21.947,-1.00537,0.03149,0.03442;
18:13:21.957,-1.00317,0.02734,0.03491;
18:13:21.967,-1.00073,0.02905,0.03442;
18:13:21.977,-1.00024,0.04053,0.03076;
18:13:21.987,-1.00464,0.04517,0.02222;
18:13:21.997,-1.00732,0.04297,0.01758;
18:13:22.007,-1.00610,0.03906,0.02393;
18:13:22.017,-1.00366,0.03198,0.02783;
18:13:22.027,-0.99902,0.02979,0.03247;
18:13:22.037,-0.99341,0.02661,0.03882;
18:13:22.047,-0.99097,0.02075,0.04004;
18:13:22.057,-0.99316,0.02148,0.04321;
18:13:22.067,-0.99438,0.02539,0.03638;
18:13:22.077,-1.00073,0.03027,0.03101;
18:13:22.087,-1.00488,0.02588,0.02979;
18:13:22.097,-1.00464,0.02515,0.02881;
18:13:22.107,-1.00391,0.02686,0.03320;
18:13:22.117,-1.00171,0.02417,0.03540;
18:13:22.127,-1.00024,0.02490,0.03687;
18:13:22.137,-1.00024,0.02808,0.03882;
18:13:22.147,-0.99927,0.02881,0.03540;
18:13:22.157,-0.99902,0.02881,0.03345;
18:13:22.167,-1.00195,0.03125,0.02661;
18:13:22.177,-1.00195,0.03076,0.02368;
18:13:22.187,-1.00269,0.03101,0.02905;
18:13:22.197,-1.00073,0.02856,0.03247;
18:13:22.207,-0.99976,0.03149,0.03711;
18:13:22.217,-1.00488,0.03638,0.04053;
18:13:22.227,-1.00439,0.03784,0.04370;
18:13:22.237,-1.00830,0.03833,0.03979;
18:13:22.247,-1.01123,0.04199,0.03174;
18:13:22.257,-1.00879,0.04517,0.03101;
18:13:22.267,-1.00537,0.04688,0.02832;
18:13:22.277,-1.00244,0.05127,0.02881;
18:13:22.287,-1.00684,0.05029,0.03296;
18:13:22.297,-1.00781,0.04883,0.03467;
18:13:22.307,-1.01099,0.04834,0.03735;
18:13:22.317,-1.01221,0.04810,0.03760;
18:13:22.327,-1.01025,0.04907,0.04346;
18:13:22.337,-1.01123,0.05029,0.04590;
18:13:22.347,-1.00806,0.04956,0.04297;
18:13:22.357,-1.00610,0.04370,0.04395;
18:13:22.367,-1.00195,0.03979,0.04590;
18:13:22.377,-0.99658,0.03784,0.04932;
18:13:22.387,-0.99683,0.03735,0.04712;
18:13:22.397,-0.99585,0.04443,0.04492;
18:13:22.407,-1.00391,0.04712,0.04053;
18:13:22.417,-1.01172,0.04785,0.03784;
18:13:22.427,-1.02295,0.04321,0.05127;
18:13:22.437,-1.01855,0.05029,0.05713;
18:13:22.447,-1.01074,0.04492,0.05420;
18:13:22.457,-1.00708,0.03589,0.04907;
18:13:22.467,-0.99634,0.03955,0.04419;
18:13:22.477,-0.99634,0.03516,0.04248;
18:13:22.487,-0.99854,0.03662,0.04224;
18:13:22.497,-1.00488,0.04907,0.04321;
18:13:22.507,-1.00415,0.04956,0.04321;
18:13:22.517,-1.00464,0.05005,0.04712;
18:13:22.527,-1.00317,0.05054,0.04346;
18:13:22.537,-1.00342,0.04785,0.04565;
18:13:22.547,-1.00244,0.04663,0.05078;
18:13:22.557,-1.00317,0.04980,0.04907;
18:13:22.567,-1.00220,0.04663,0.04688;
18:13:22.577,-1.00317,0.04761,0.04834;
18:13:22.587,-1.00293,0.04907,0.04639;
18:13:22.597,-1.00342,0.04834,0.04639;
18:13:22.607,-1.00391,0.04834,0.05054;
18:13:22.617,-1.00391,0.04761,0.05054;
18:13:22.627,-1.00635,0.05005,0.05151;
18:13:22.637,-1.00488,0.04907,0.05078;
18:13:22.647,-1.00391,0.04932,0.05347;
18:13:22.657,-1.00586,0.05005,0.04883;
18:13:22.667,-1.00415,0.05273,0.05029;
18:13:22.677,-1.00415,0.05444,0.05151;
18:13:22.687,-1.00513,0.04956,0.04736;
18:13:22.697,-1.00293,0.05029,0.04590;
18:13:22.707,-1.00317,0.05005,0.04785;
18:13:22.717,-1.00073,0.04980,0.04639;
18:13:22.727,-0.99756,0.04956,0.04688;
18:13:22.737,-0.99731,0.05591,0.05200;
18:13:22.747,-0.99854,0.05762,0.05127;
18:13:22.757,-1.00439,0.05884,0.05298;
18:13:22.767,-1.00757,0.05615,0.05054;
18:13:22.777,-1.00879,0.05005,0.05347;
18:13:22.787,-1.00635,0.05249,0.05762;
18:13:22.797,-1.00464,0.05005,0.05444;
18:13:22.807,-1.00391,0.04834,0.05664;
18:13:22.817,-1.00000,0.04907,0.05615;
18:13:22.827,-1.00073,0.05933,0.05249;
18:13:22.837,-1.00610,0.06055,0.05811;
18:13:22.847,-1.01001,0.05200,0.05884;
18:13:22.857,-1.01099,0.05469,0.05713;
18:13:22.867,-1.01001,0.05737,0.05786;
18:13:22.877,-1.00610,0.05835,0.05273;
18:13:22.887,-1.00708,0.06812,0.04614;
18:13:22.897,-1.01025,0.06567,0.05298;
18:13:22.907,-1.00854,0.05151,0.06128;
18:13:22.917,-1.00732,0.05225,0.06519;
18:13:22.927,-1.00562,0.05615,0.06177;
18:13:22.937,-1.00293,0.05640,0.05347;
18:13:22.947,-1.00220,0.06079,0.04932;
18:13:22.957,-1.00439,0.06274,0.04565;
18:13:22.967,-1.00562,0.06030,0.04370;
18:13:22.977,-1.00537,0.05908,0.04175;
18:13:22.987,-1.00684,0.06030,0.04932;
18:13:22.997,-1.00488,0.05981,0.05127;
18:13:23.007,-1.00586,0.05664,0.05151;
18:13:23.017,-1.00757,0.05737,0.05103;
18:13:23.027,-1.00879,0.05933,0.05005;
18:13:23.037,-1.00586,0.06323,0.04688;
18:13:23.047,-1.00488,0.06519,0.04419;
18:13:23.057,-1.00586,0.06689,0.03979;
18:13:23.067,-1.00659,0.06714,0.03638;
18:13:23.077,-1.00732,0.06665,0.03857;
18:13:23.087,-1.00635,0.06470,0.04175;
18:13:23.097,-1.00537,0.06421,0.04541;
18:13:23.107,-1.00562,0.06372,0.04321;
18:13:23.117,-1.00317,0.06348,0.03394;
18:13:23.127,-1.00122,0.07275,0.03613;
18:13:23.137,-1.01294,0.06274,0.03540;
18:13:23.147,-1.01074,0.05469,0.03662;
18:13:23.157,-1.00244,0.05664,0.02686;
18:13:23.167,-1.00244,0.05908,0.02344;
18:13:23.177,-1.00195,0.05322,0.02051;
18:13:23.187,-0.99561,0.04565,0.01831;
18:13:23.197,-0.99048,0.05542,0.03223;
18:13:23.207,-0.99756,0.07373,0.03882;
18:13:23.217,-0.98608,0.07251,0.02588;
18:13:23.227,-0.98047,0.07861,0.03149;
18:13:23.237,-0.99512,0.06641,0.02783;
18:13:23.247,-0.97852,0.04932,0.01733;
18:13:23.257,-0.97510,0.08105,0.03003;
18:13:23.267,-0.99365,0.09473,0.02881;
18:13:23.277,-0.99512,0.06348,0.00293;
18:13:23.287,-0.99585,0.04492,-0.01074;
18:13:23.297,-1.00586,0.04883,-0.01099;
18:13:23.307,-1.00977,0.05005,-0.00146;
18:13:23.317,-1.00317,0.04175,0.01563;
18:13:23.327,-1.00659,0.05103,0.01343;
18:13:23.337,-1.01172,0.08350,0.00293;
18:13:23.347,-1.01221,0.09668,0.00439;
18:13:23.357,-1.01172,0.08081,0.00024;
18:13:23.367,-1.01099,0.06494,-0.01221;
18:13:23.377,-1.01514,0.06592,-0.01270;
18:13:23.387,-1.02319,0.06445,-0.01196;
18:13:23.397,-1.02319,0.06616,-0.02173;
18:13:23.407,-1.01904,0.08057,-0.01733;
18:13:23.417,-1.01758,0.08643,-0.00293;
18:13:23.427,-1.01270,0.08398,0.00049;
18:13:23.437,-1.00610,0.07349,0.01831;
18:13:23.447,-1.00635,0.05688,0.02637;
18:13:23.457,-1.00928,0.06104,0.01025;
18:13:23.467,-1.01123,0.06909,0.00854;
18:13:23.477,-1.00854,0.06982,-0.00562;
18:13:23.487,-1.00122,0.08081,-0.01050;
18:13:23.497,-0.99805,0.08862,-0.00171;
18:13:23.507,-1.00024,0.08862,-0.00269;
18:13:23.517,-1.01270,0.10229,-0.00269;
18:13:23.527,-1.02124,0.15234,-0.00488;
18:13:23.537,-1.03369,0.18506,-0.01318;
18:13:23.547,-1.06177,0.20093,0.00439;
18:13:23.557,-1.10693,0.17651,0.00879;
18:13:23.567,-1.14087,0.15283,0.04907;
18:13:23.577,-1.22974,0.11963,0.07251;
18:13:23.587,-1.41382,0.10669,0.09717;
18:13:23.597,-1.69702,0.26025,0.05908;
18:13:23.607,-1.78687,0.26807,0.03955;
18:13:23.617,-1.79883,0.22852,0.01440;
18:13:23.627,-1.77856,0.31641,-0.03271;
18:13:23.637,-1.61816,0.27808,0.00952;
18:13:23.647,-1.54175,0.30005,-0.00806;
18:13:23.657,-1.49902,0.41064,-0.12622;
18:13:23.667,-1.42529,0.35718,-0.45532;
18:13:23.677,-1.20630,0.13696,-0.68262;
18:13:23.687,-0.87427,-0.40869,-0.54565;
18:13:23.697,-0.47388,-1.12646,-0.10938;
18:13:23.707,-0.62280,-1.52466,0.17676;
18:13:23.717,-1.30103,-1.37622,0.42261;
