time,acc_x,acc_y,acc_z
18:55:50.361,-0.35400,0.43384,-0.84033;
18:55:50.371,-0.34302,0.43701,-0.85181;
18:55:50.381,-0.34399,0.43140,-0.85742;
18:55:50.391,-0.34595,0.43262,-0.86060;
18:55:50.401,-0.34741,0.43311,-0.85498;
18:55:50.411,-0.35791,0.42139,-0.84399;
18:55:50.421,-0.36670,0.43579,-0.83545;
18:55:50.431,-0.36304,0.45410,-0.83252;
18:55:50.441,-0.36646,0.44751,-0.82739;
18:55:50.451,-0.37134,0.45923,-0.83472;
18:55:50.461,-0.36401,0.46265,-0.83594;
18:55:50.471,-0.35254,0.45996,-0.83887;
18:55:50.481,-0.34766,0.44482,-0.84253;
18:55:50.491,-0.34741,0.43359,-0.84106;
18:55:50.501,-0.34912,0.43335,-0.83984;
18:55:50.511,-0.35449,0.42725,-0.83862;
18:55:50.521,-0.36401,0.42334,-0.83667;
18:55:50.531,-0.37280,0.40503,-0.83008;
18:55:50.541,-0.38696,0.42554,-0.83716;
18:55:50.551,-0.34131,0.43701,-0.84668;
18:55:50.561,-0.34521,0.41650,-0.84741;
18:55:50.571,-0.34668,0.44482,-0.83545;
18:55:50.581,-0.35229,0.45361,-0.83765;
18:55:50.591,-0.34570,0.46167,-0.84302;
18:55:50.601,-0.34277,0.44238,-0.83936;
18:55:50.611,-0.35840,0.42773,-0.84106;
18:55:50.621,-0.35938,0.43335,-0.84692;
18:55:50.631,-0.35571,0.43408,-0.84521;
18:55:50.641,-0.36157,0.43188,-0.84033;
18:55:50.651,-0.36157,0.43579,-0.83716;
18:55:50.661,-0.36279,0.44702,-0.84082;
18:55:50.671,-0.35669,0.45703,-0.84448;
18:55:50.681,-0.35449,0.45215,-0.84668;
18:55:50.691,-0.35693,0.44775,-0.85083;
18:55:50.701,-0.35303,0.45898,-0.84985;
18:55:50.711,-0.35205,0.45825,-0.85010;
18:55:50.721,-0.35425,0.44263,-0.84497;
18:55:50.731,-0.36377,0.43994,-0.83960;
18:55:50.741,-0.36816,0.42798,-0.83374;
18:55:50.751,-0.37988,0.42456,-0.82373;
18:55:50.761,-0.38037,0.42969,-0.82495;
18:55:50.771,-0.38037,0.42944,-0.82373;
18:55:50.781,-0.37329,0.43213,-0.82935;
18:55:50.791,-0.36890,0.40991,-0.83081;
18:55:50.801,-0.36499,0.42065,-0.82886;
18:55:50.811,-0.36890,0.43579,-0.83618;
18:55:50.821,-0.37549,0.40918,-0.83081;
18:55:50.831,-0.37646,0.42017,-0.81982;
18:55:50.841,-0.37305,0.45020,-0.81592;
18:55:50.851,-0.36987,0.45801,-0.81860;
18:55:50.861,-0.37134,0.45630,-0.82349;
18:55:50.871,-0.36816,0.46655,-0.83154;
18:55:50.881,-0.36108,0.47021,-0.83813;
18:55:50.891,-0.35840,0.45361,-0.83521;
18:55:50.901,-0.35742,0.44727,-0.84302;
18:55:50.911,-0.35620,0.43896,-0.84741;
18:55:50.921,-0.35767,0.42334,-0.83813;
18:55:50.931,-0.36450,0.41284,-0.83252;
18:55:50.941,-0.37231,0.41919,-0.82983;
18:55:50.951,-0.37769,0.42627,-0.82495;
18:55:50.961,-0.38477,0.42676,-0.81909;
18:55:50.971,-0.39502,0.41211,-0.81421;
18:55:50.981,-0.39429,0.41040,-0.81982;
18:55:50.991,-0.38452,0.40869,-0.82520;
18:55:51.001,-0.37036,0.42285,-0.83105;
18:55:51.011,-0.35693,0.42114,-0.83691;
18:55:51.021,-0.34961,0.41553,-0.84058;
18:55:51.031,-0.34839,0.44604,-0.85156;
18:55:51.041,-0.34546,0.45093,-0.85156;
18:55:51.051,-0.34424,0.44409,-0.85156;
18:55:51.061,-0.33887,0.46094,-0.85815;
18:55:51.071,-0.33057,0.46289,-0.85303;
18:55:51.081,-0.34595,0.44238,-0.84497;
18:55:51.091,-0.35522,0.44849,-0.84668;
18:55:51.101,-0.35205,0.44824,-0.85205;
18:55:51.111,-0.36572,0.42432,-0.84839;
18:55:51.121,-0.37354,0.42969,-0.83984;
18:55:51.131,-0.36646,0.45068,-0.83569;
18:55:51.141,-0.36328,0.46094,-0.83545;
18:55:51.151,-0.36133,0.45972,-0.84595;
18:55:51.161,-0.36450,0.44751,-0.83008;
18:55:51.171,-0.37744,0.45947,-0.81714;
18:55:51.181,-0.38306,0.42188,-0.81592;
18:55:51.191,-0.38452,0.41821,-0.81787;
18:55:51.201,-0.38428,0.42163,-0.82251;
18:55:51.211,-0.38281,0.42236,-0.82080;
18:55:51.221,-0.38379,0.41724,-0.82520;
18:55:51.231,-0.38965,0.39868,-0.82568;
18:55:51.241,-0.38501,0.41821,-0.82080;
18:55:51.251,-0.36816,0.44775,-0.82349;
18:55:51.261,-0.36621,0.44678,-0.83057;
18:55:51.271,-0.37158,0.45874,-0.83765;
18:55:51.281,-0.36841,0.46729,-0.84229;
18:55:51.291,-0.36328,0.46216,-0.84009;
18:55:51.301,-0.36353,0.44995,-0.83521;
18:55:51.311,-0.36572,0.43213,-0.82788;
18:55:51.321,-0.37012,0.42700,-0.82739;
18:55:51.331,-0.37500,0.41284,-0.82935;
18:55:51.341,-0.35693,0.44312,-0.83105;
18:55:51.351,-0.34351,0.45361,-0.83887;
18:55:51.361,-0.32910,0.47095,-0.85620;
18:55:51.371,-0.32129,0.46338,-0.86011;
18:55:51.381,-0.32495,0.45679,-0.86084;
18:55:51.391,-0.32837,0.44043,-0.86182;
18:55:51.401,-0.36377,0.40479,-0.84717;
18:55:51.411,-0.37842,0.42578,-0.84033;
18:55:51.421,-0.38159,0.45654,-0.83765;
18:55:51.431,-0.37891,0.47217,-0.83423;
18:55:51.441,-0.38208,0.47192,-0.83032;
18:55:51.451,-0.38086,0.47583,-0.83081;
18:55:51.461,-0.37891,0.46582,-0.82690;
18:55:51.471,-0.37939,0.44604,-0.82349;
18:55:51.481,-0.38062,0.42969,-0.81860;
18:55:51.491,-0.37915,0.42383,-0.81934;
18:55:51.501,-0.37573,0.43335,-0.81763;
18:55:51.511,-0.37305,0.44360,-0.81567;
18:55:51.521,-0.37256,0.44629,-0.81592;
18:55:51.531,-0.37451,0.43579,-0.81567;
18:55:51.541,-0.37817,0.41968,-0.81738;
18:55:51.551,-0.38062,0.40601,-0.81665;
18:55:51.561,-0.38184,0.39600,-0.81982;
18:55:51.571,-0.37769,0.40088,-0.83228;
18:55:51.581,-0.37134,0.41162,-0.83960;
18:55:51.591,-0.37378,0.41626,-0.82739;
18:55:51.601,-0.36914,0.43506,-0.83203;
18:55:51.611,-0.36646,0.44775,-0.83569;
18:55:51.621,-0.36670,0.46606,-0.84082;
18:55:51.631,-0.36377,0.46851,-0.84497;
18:55:51.641,-0.36182,0.46606,-0.84814;
18:55:51.651,-0.35693,0.46777,-0.84888;
18:55:51.661,-0.35376,0.45972,-0.84033;
18:55:51.671,-0.36060,0.45093,-0.83838;
18:55:51.681,-0.36865,0.43213,-0.83789;
18:55:51.691,-0.37183,0.43311,-0.83105;
18:55:51.701,-0.37793,0.42139,-0.83228;
18:55:51.711,-0.36987,0.42725,-0.83179;
18:55:51.721,-0.35889,0.41943,-0.84302;
18:55:51.731,-0.36230,0.41650,-0.84204;
18:55:51.741,-0.35864,0.43384,-0.83813;
18:55:51.751,-0.34668,0.46362,-0.83911;
18:55:51.761,-0.33887,0.47046,-0.84839;
18:55:51.771,-0.34326,0.44019,-0.85254;
18:55:51.781,-0.34937,0.42847,-0.84961;
18:55:51.791,-0.35107,0.43335,-0.84497;
18:55:51.801,-0.35815,0.41235,-0.84253;
18:55:51.811,-0.37280,0.40747,-0.84253;
18:55:51.821,-0.38428,0.41748,-0.83765;
18:55:51.831,-0.38574,0.42896,-0.83545;
18:55:51.841,-0.37915,0.44312,-0.82886;
18:55:51.851,-0.37012,0.44458,-0.82642;
18:55:51.861,-0.36328,0.44434,-0.83545;
18:55:51.871,-0.35791,0.44995,-0.84741;
18:55:51.881,-0.35303,0.44165,-0.85474;
18:55:51.891,-0.34692,0.43457,-0.85107;
18:55:51.901,-0.34717,0.44141,-0.84521;
18:55:51.911,-0.35083,0.43359,-0.84570;
18:55:51.921,-0.35474,0.42773,-0.84155;
18:55:51.931,-0.36011,0.42847,-0.83569;
18:55:51.941,-0.36792,0.42871,-0.83057;
18:55:51.951,-0.37378,0.43066,-0.82471;
18:55:51.961,-0.37720,0.42554,-0.82397;
18:55:51.971,-0.37793,0.41382,-0.82373;
18:55:51.981,-0.37451,0.41870,-0.82446;
18:55:51.991,-0.37354,0.43140,-0.82910;
18:55:52.001,-0.37061,0.43481,-0.83447;
18:55:52.011,-0.36426,0.42847,-0.83960;
18:55:52.021,-0.36011,0.41772,-0.83960;
18:55:52.031,-0.36035,0.42480,-0.83667;
18:55:52.041,-0.35791,0.44116,-0.83813;
18:55:52.051,-0.35449,0.44873,-0.84106;
18:55:52.061,-0.35718,0.44312,-0.84082;
18:55:52.071,-0.36060,0.42896,-0.84204;
18:55:52.081,-0.36279,0.42505,-0.83960;
18:55:52.091,-0.36133,0.42700,-0.83521;
18:55:52.101,-0.35938,0.43652,-0.83838;
18:55:52.111,-0.34814,0.44995,-0.84253;
18:55:52.121,-0.34888,0.43262,-0.84595;
18:55:52.131,-0.34985,0.43018,-0.84766;
18:55:52.141,-0.34717,0.43579,-0.85205;
18:55:52.151,-0.34961,0.41284,-0.84912;
18:55:52.161,-0.35693,0.40063,-0.84326;
18:55:52.171,-0.35840,0.40430,-0.84424;
18:55:52.181,-0.36060,0.40625,-0.84326;
18:55:52.191,-0.36255,0.42236,-0.83984;
18:55:52.201,-0.36108,0.42480,-0.84546;
18:55:52.211,-0.35889,0.42822,-0.84766;
18:55:52.221,-0.35229,0.43335,-0.84888;
18:55:52.231,-0.34912,0.43042,-0.84814;
18:55:52.241,-0.34497,0.43188,-0.84692;
18:55:52.251,-0.34277,0.43555,-0.84473;
18:55:52.261,-0.34326,0.43799,-0.84570;
18:55:52.271,-0.34277,0.43799,-0.84863;
18:55:52.281,-0.34326,0.43799,-0.84814;
18:55:52.291,-0.34595,0.43823,-0.84912;
18:55:52.301,-0.35059,0.43848,-0.83789;
18:55:52.311,-0.35596,0.42188,-0.83813;
18:55:52.321,-0.35669,0.41260,-0.83740;
18:55:52.331,-0.35376,0.44312,-0.83545;
18:55:52.341,-0.35107,0.43237,-0.83667;
18:55:52.351,-0.35840,0.41553,-0.83887;
18:55:52.361,-0.35400,0.42700,-0.83569;
18:55:52.371,-0.35400,0.42139,-0.83911;
18:55:52.381,-0.35718,0.42236,-0.83984;
18:55:52.391,-0.35181,0.42627,-0.83984;
18:55:52.401,-0.34961,0.42505,-0.84106;
18:55:52.411,-0.34814,0.42773,-0.84424;
18:55:52.421,-0.34058,0.42334,-0.85034;
18:55:52.431,-0.33691,0.41772,-0.85522;
18:55:52.441,-0.33521,0.41602,-0.86157;
18:55:52.451,-0.33374,0.42065,-0.86743;
18:55:52.461,-0.33472,0.41553,-0.87085;
18:55:52.471,-0.32959,0.41455,-0.86914;
18:55:52.481,-0.33081,0.42700,-0.86377;
18:55:52.491,-0.33423,0.43481,-0.86060;
18:55:52.501,-0.33594,0.44165,-0.85962;
18:55:52.511,-0.33496,0.43604,-0.85571;
18:55:52.521,-0.33545,0.42822,-0.85571;
18:55:52.531,-0.33789,0.42676,-0.85303;
18:55:52.541,-0.33813,0.42969,-0.85132;
18:55:52.551,-0.34033,0.42505,-0.85352;
18:55:52.561,-0.33813,0.42358,-0.85083;
18:55:52.571,-0.33594,0.42407,-0.84741;
18:55:52.581,-0.33960,0.42188,-0.84961;
18:55:52.591,-0.34106,0.40942,-0.85132;
18:55:52.601,-0.34106,0.41089,-0.84863;
18:55:52.611,-0.34082,0.41821,-0.84448;
18:55:52.621,-0.34619,0.41602,-0.84473;
18:55:52.631,-0.34912,0.41138,-0.84009;
18:55:52.641,-0.34766,0.40942,-0.83789;
18:55:52.651,-0.34595,0.42041,-0.84033;
18:55:52.661,-0.34741,0.42310,-0.84058;
18:55:52.671,-0.34985,0.42090,-0.84424;
18:55:52.681,-0.35132,0.41699,-0.84253;
18:55:52.691,-0.35376,0.42065,-0.84595;
18:55:52.701,-0.34790,0.42773,-0.85083;
18:55:52.711,-0.34351,0.42627,-0.84863;
18:55:52.721,-0.33740,0.42944,-0.85303;
18:55:52.731,-0.33154,0.43042,-0.85620;
18:55:52.741,-0.33325,0.42969,-0.86035;
18:55:52.751,-0.33545,0.43042,-0.86206;
18:55:52.761,-0.33423,0.43481,-0.86035;
18:55:52.771,-0.33423,0.42847,-0.85571;
18:55:52.781,-0.33862,0.42236,-0.85400;
18:55:52.791,-0.34033,0.42407,-0.85791;
18:55:52.801,-0.34204,0.42603,-0.84888;
18:55:52.811,-0.34644,0.42432,-0.84473;
18:55:52.821,-0.35425,0.41382,-0.84888;
18:55:52.831,-0.35571,0.41089,-0.84668;
18:55:52.841,-0.35474,0.41382,-0.84326;
18:55:52.851,-0.35181,0.41895,-0.84644;
18:55:52.861,-0.34985,0.42090,-0.85107;
18:55:52.871,-0.34741,0.41577,-0.84668;
18:55:52.881,-0.34058,0.41650,-0.84229;
18:55:52.891,-0.34351,0.41309,-0.84448;
18:55:52.901,-0.34790,0.40576,-0.84521;
18:55:52.911,-0.34668,0.41504,-0.84692;
18:55:52.921,-0.34277,0.41748,-0.84692;
18:55:52.931,-0.34644,0.42676,-0.85107;
18:55:52.941,-0.34766,0.42212,-0.84766;
18:55:52.951,-0.35010,0.42163,-0.84717;
18:55:52.961,-0.34814,0.42480,-0.84937;
18:55:52.971,-0.34448,0.42432,-0.84912;
18:55:52.981,-0.34473,0.42944,-0.84473;
18:55:52.991,-0.34351,0.42627,-0.84595;
18:55:53.001,-0.34302,0.41968,-0.85132;
18:55:53.011,-0.34229,0.41943,-0.85425;
18:55:53.021,-0.33984,0.41724,-0.85352;
18:55:53.031,-0.33765,0.41895,-0.85522;
18:55:53.041,-0.33716,0.42090,-0.85425;
18:55:53.051,-0.33740,0.42065,-0.85376;
18:55:53.061,-0.33667,0.42188,-0.85254;
18:55:53.071,-0.33862,0.42432,-0.85205;
18:55:53.081,-0.34058,0.42285,-0.85352;
18:55:53.091,-0.34521,0.42432,-0.85547;
18:55:53.101,-0.34546,0.41919,-0.85449;
18:55:53.111,-0.34253,0.41138,-0.84961;
18:55:53.121,-0.34033,0.41431,-0.84912;
18:55:53.131,-0.33813,0.42041,-0.85059;
18:55:53.141,-0.33813,0.42188,-0.85327;
18:55:53.151,-0.33887,0.41943,-0.85522;
18:55:53.161,-0.33862,0.41504,-0.85376;
18:55:53.171,-0.33911,0.41260,-0.85254;
18:55:53.181,-0.33911,0.41382,-0.85425;
18:55:53.191,-0.33911,0.41992,-0.85425;
18:55:53.201,-0.34009,0.42236,-0.85229;
18:55:53.211,-0.33936,0.41846,-0.85254;
18:55:53.221,-0.34106,0.41016,-0.85034;
18:55:53.231,-0.34106,0.40918,-0.84888;
18:55:53.241,-0.34229,0.41455,-0.85010;
18:55:53.251,-0.34180,0.41504,-0.84961;
18:55:53.261,-0.34106,0.40796,-0.84863;
18:55:53.271,-0.33960,0.41406,-0.84668;
18:55:53.281,-0.33813,0.41992,-0.85156;
18:55:53.291,-0.33716,0.41479,-0.85278;
18:55:53.301,-0.33594,0.42017,-0.85596;
18:55:53.311,-0.33350,0.41968,-0.85791;
18:55:53.321,-0.33276,0.41553,-0.85474;
18:55:53.331,-0.33423,0.41528,-0.85400;
18:55:53.341,-0.33374,0.41797,-0.85669;
18:55:53.351,-0.33374,0.41797,-0.85742;
18:55:53.361,-0.33496,0.41675,-0.85791;
18:55:53.371,-0.33594,0.41992,-0.85889;
18:55:53.381,-0.33423,0.41992,-0.85669;
18:55:53.391,-0.33521,0.41309,-0.85718;
18:55:53.401,-0.33325,0.41943,-0.85596;
18:55:53.411,-0.33228,0.42407,-0.85449;
18:55:53.421,-0.33203,0.42188,-0.85498;
18:55:53.431,-0.33545,0.41772,-0.85400;
18:55:53.441,-0.33765,0.41089,-0.85132;
18:55:53.451,-0.33838,0.41284,-0.85132;
18:55:53.461,-0.34106,0.41772,-0.84863;
18:55:53.471,-0.34253,0.41943,-0.84644;
18:55:53.481,-0.34082,0.41772,-0.84888;
18:55:53.491,-0.33838,0.41357,-0.85059;
18:55:53.501,-0.33472,0.41357,-0.84863;
18:55:53.511,-0.33765,0.42163,-0.84937;
18:55:53.521,-0.33691,0.42017,-0.85498;
18:55:53.531,-0.33838,0.42163,-0.85571;
18:55:53.541,-0.33252,0.42090,-0.85889;
18:55:53.551,-0.33203,0.41577,-0.85205;
18:55:53.561,-0.33765,0.41064,-0.85620;
18:55:53.571,-0.33472,0.41504,-0.85229;
18:55:53.581,-0.33496,0.41699,-0.85034;
18:55:53.591,-0.33569,0.41602,-0.85376;
18:55:53.601,-0.33447,0.41870,-0.85864;
18:55:53.611,-0.33398,0.41284,-0.85254;
18:55:53.621,-0.33594,0.41138,-0.85107;
18:55:53.631,-0.33862,0.41235,-0.85376;
18:55:53.641,-0.34058,0.41821,-0.85449;
18:55:53.651,-0.33691,0.41772,-0.85303;
18:55:53.661,-0.33618,0.41333,-0.85327;
18:55:53.671,-0.33398,0.41528,-0.85669;
18:55:53.681,-0.33032,0.41528,-0.85352;
18:55:53.691,-0.32837,0.42017,-0.85791;
18:55:53.701,-0.32690,0.42432,-0.86035;
18:55:53.711,-0.32764,0.42603,-0.85693;
18:55:53.721,-0.32739,0.42310,-0.85718;
18:55:53.731,-0.33228,0.41968,-0.85303;
18:55:53.741,-0.33569,0.41895,-0.85107;
18:55:53.751,-0.33813,0.41699,-0.85229;
18:55:53.761,-0.34009,0.41821,-0.85059;
18:55:53.771,-0.33936,0.41821,-0.85059;
18:55:53.781,-0.33765,0.41650,-0.85181;
18:55:53.791,-0.33594,0.41846,-0.84912;
18:55:53.801,-0.33569,0.41797,-0.85059;
18:55:53.811,-0.33301,0.41772,-0.85327;
18:55:53.821,-0.33252,0.41699,-0.85425;
18:55:53.831,-0.33301,0.41333,-0.85400;
18:55:53.841,-0.33154,0.41406,-0.85596;
18:55:53.851,-0.33203,0.41626,-0.85693;
18:55:53.861,-0.33228,0.41724,-0.85425;
18:55:53.871,-0.33252,0.41504,-0.85645;
18:55:53.881,-0.33447,0.41211,-0.85278;
18:55:53.891,-0.33545,0.41479,-0.85498;
18:55:53.901,-0.33496,0.41724,-0.85547;
18:55:53.911,-0.33569,0.41846,-0.85303;
18:55:53.921,-0.33521,0.41968,-0.85400;
18:55:53.931,-0.33472,0.41699,-0.85376;
18:55:53.941,-0.33569,0.41138,-0.85376;
18:55:53.951,-0.33398,0.41187,-0.85229;
18:55:53.961,-0.33301,0.41577,-0.85083;
18:55:53.971,-0.33301,0.41626,-0.85498;
18:55:53.981,-0.33203,0.41479,-0.85278;
18:55:53.991,-0.33423,0.41895,-0.85303;
18:55:54.001,-0.33521,0.42139,-0.85376;
18:55:54.011,-0.33472,0.42041,-0.85303;
18:55:54.021,-0.33472,0.41846,-0.85034;
18:55:54.031,-0.33569,0.41846,-0.84863;
18:55:54.041,-0.33496,0.42041,-0.85156;
18:55:54.051,-0.33276,0.42017,-0.85522;
18:55:54.061,-0.33252,0.42017,-0.85693;
18:55:54.071,-0.33130,0.42139,-0.85669;
18:55:54.081,-0.32837,0.42334,-0.85400;
18:55:54.091,-0.32983,0.42725,-0.85645;
18:55:54.101,-0.33081,0.42627,-0.85474;
18:55:54.111,-0.33057,0.42017,-0.85669;
18:55:54.121,-0.33398,0.41260,-0.85254;
18:55:54.131,-0.33496,0.41797,-0.85596;
18:55:54.141,-0.33032,0.42017,-0.85840;
18:55:54.151,-0.33423,0.41675,-0.85547;
18:55:54.161,-0.33276,0.41577,-0.85596;
18:55:54.171,-0.33594,0.41382,-0.85376;
18:55:54.181,-0.33447,0.41626,-0.85693;
18:55:54.191,-0.33423,0.41504,-0.85425;
18:55:54.201,-0.33472,0.41064,-0.85083;
18:55:54.211,-0.33447,0.41455,-0.85254;
18:55:54.221,-0.33545,0.41382,-0.85352;
18:55:54.231,-0.33667,0.41357,-0.85254;
18:55:54.241,-0.33691,0.41577,-0.85132;
18:55:54.251,-0.33398,0.41870,-0.85278;
18:55:54.261,-0.33643,0.42285,-0.85254;
18:55:54.271,-0.33618,0.41797,-0.85034;
18:55:54.281,-0.33496,0.41333,-0.85010;
18:55:54.291,-0.33545,0.41528,-0.85156;
18:55:54.301,-0.33228,0.42065,-0.84912;
18:55:54.311,-0.33057,0.42383,-0.85474;
18:55:54.321,-0.33228,0.42017,-0.85815;
18:55:54.331,-0.33276,0.41895,-0.85352;
18:55:54.341,-0.33228,0.42017,-0.85425;
18:55:54.351,-0.33325,0.42212,-0.85449;
18:55:54.361,-0.33398,0.42285,-0.85034;
18:55:54.371,-0.33472,0.42480,-0.85034;
18:55:54.381,-0.33594,0.42700,-0.84985;
18:55:54.391,-0.33838,0.41821,-0.84985;
18:55:54.401,-0.34009,0.40894,-0.85107;
18:55:54.411,-0.33716,0.41406,-0.85352;
18:55:54.421,-0.33545,0.42261,-0.85278;
18:55:54.431,-0.33228,0.42700,-0.85229;
18:55:54.441,-0.33130,0.42920,-0.85400;
18:55:54.451,-0.33105,0.43164,-0.85571;
18:55:54.461,-0.32983,0.42822,-0.85376;
18:55:54.471,-0.33179,0.42480,-0.85303;
18:55:54.481,-0.33301,0.42725,-0.85327;
18:55:54.491,-0.33716,0.42529,-0.84888;
18:55:54.501,-0.33960,0.42163,-0.84790;
18:55:54.511,-0.33960,0.42310,-0.84961;
18:55:54.521,-0.33887,0.42505,-0.85303;
18:55:54.531,-0.33569,0.42139,-0.85522;
18:55:54.541,-0.33521,0.42139,-0.85278;
18:55:54.551,-0.33374,0.42651,-0.85352;
18:55:54.561,-0.33057,0.42651,-0.85522;
18:55:54.571,-0.33057,0.42773,-0.85522;
18:55:54.581,-0.33057,0.43262,-0.85400;
18:55:54.591,-0.33203,0.42700,-0.85229;
18:55:54.601,-0.33374,0.42456,-0.85181;
18:55:54.611,-0.33618,0.42407,-0.84839;
18:55:54.621,-0.33862,0.42505,-0.84839;
18:55:54.631,-0.33911,0.42432,-0.84644;
18:55:54.641,-0.34180,0.42139,-0.84521;
18:55:54.651,-0.34253,0.42163,-0.84790;
18:55:54.661,-0.33813,0.41943,-0.84912;
18:55:54.671,-0.33472,0.42041,-0.85352;
18:55:54.681,-0.33423,0.42383,-0.85352;
18:55:54.691,-0.33252,0.42529,-0.85181;
18:55:54.701,-0.33423,0.42603,-0.85205;
18:55:54.711,-0.33691,0.42847,-0.85181;
18:55:54.721,-0.33716,0.42725,-0.85107;
18:55:54.731,-0.33618,0.42773,-0.85010;
18:55:54.741,-0.33496,0.42920,-0.85132;
18:55:54.751,-0.33618,0.42749,-0.85107;
18:55:54.761,-0.33594,0.42261,-0.84961;
18:55:54.771,-0.33496,0.42432,-0.85400;
18:55:54.781,-0.33667,0.42407,-0.84985;
18:55:54.791,-0.33789,0.42505,-0.84497;
18:55:54.801,-0.33862,0.42334,-0.84473;
18:55:54.811,-0.33936,0.42310,-0.84717;
18:55:54.821,-0.33887,0.42139,-0.85010;
18:55:54.831,-0.33740,0.42358,-0.84521;
18:55:54.841,-0.33887,0.42651,-0.84570;
18:55:54.851,-0.33936,0.42749,-0.84937;
18:55:54.861,-0.33643,0.42285,-0.85083;
18:55:54.871,-0.33423,0.42651,-0.85107;
18:55:54.881,-0.33252,0.43286,-0.85303;
18:55:54.891,-0.33032,0.43213,-0.85425;
18:55:54.901,-0.32983,0.42969,-0.85156;
18:55:54.911,-0.32983,0.43164,-0.85474;
18:55:54.921,-0.33057,0.43311,-0.85229;
18:55:54.931,-0.33252,0.43164,-0.85059;
18:55:54.941,-0.33472,0.42920,-0.85278;
18:55:54.951,-0.33472,0.42651,-0.84814;
18:55:54.961,-0.33643,0.42407,-0.84668;
18:55:54.971,-0.33643,0.42676,-0.84937;
18:55:54.981,-0.33643,0.42944,-0.85059;
18:55:54.991,-0.33472,0.42480,-0.84863;
18:55:55.001,-0.33472,0.42261,-0.84961;
18:55:55.011,-0.33594,0.42505,-0.85083;
18:55:55.021,-0.33398,0.42676,-0.84692;
18:55:55.031,-0.33594,0.43066,-0.84985;
18:55:55.041,-0.33838,0.43164,-0.84717;
18:55:55.051,-0.33740,0.42822,-0.84399;
18:55:55.061,-0.33911,0.43140,-0.84668;
18:55:55.071,-0.33960,0.43384,-0.84961;
18:55:55.081,-0.33789,0.42944,-0.85278;
18:55:55.091,-0.33691,0.42285,-0.85425;
18:55:55.101,-0.33423,0.42285,-0.85400;
18:55:55.111,-0.33228,0.42529,-0.85693;
18:55:55.121,-0.33032,0.42749,-0.85669;
18:55:55.131,-0.32886,0.42871,-0.85303;
18:55:55.141,-0.32788,0.43115,-0.85132;
18:55:55.151,-0.33105,0.43286,-0.84814;
18:55:55.161,-0.33594,0.42749,-0.84985;
18:55:55.171,-0.34155,0.41943,-0.84546;
18:55:55.181,-0.34692,0.41919,-0.84497;
18:55:55.191,-0.34839,0.42090,-0.84692;
18:55:55.201,-0.34644,0.42603,-0.83838;
18:55:55.211,-0.34253,0.42920,-0.84302;
18:55:55.221,-0.33960,0.41553,-0.84521;
18:55:55.231,-0.34448,0.42041,-0.85400;
18:55:55.241,-0.34155,0.42920,-0.86743;
18:55:55.251,-0.32666,0.42554,-0.85913;
18:55:55.261,-0.32227,0.42993,-0.85620;
18:55:55.271,-0.32739,0.43848,-0.86182;
18:55:55.281,-0.33057,0.42773,-0.85962;
18:55:55.291,-0.33203,0.41284,-0.85181;
18:55:55.301,-0.33911,0.42139,-0.84888;
18:55:55.311,-0.34448,0.43530,-0.84497;
18:55:55.321,-0.34790,0.44043,-0.84399;
18:55:55.331,-0.35254,0.42065,-0.84229;
18:55:55.341,-0.35474,0.41699,-0.83984;
18:55:55.351,-0.35132,0.43311,-0.83618;
18:55:55.361,-0.35156,0.43188,-0.83716;
18:55:55.371,-0.35034,0.42383,-0.84204;
18:55:55.381,-0.34741,0.43262,-0.83813;
18:55:55.391,-0.34717,0.43408,-0.83789;
18:55:55.401,-0.34497,0.42505,-0.84277;
18:55:55.411,-0.34448,0.42627,-0.84717;
18:55:55.421,-0.33862,0.42798,-0.85132;
18:55:55.431,-0.34570,0.42798,-0.84790;
18:55:55.441,-0.34521,0.43018,-0.84595;
18:55:55.451,-0.33789,0.43140,-0.84473;
18:55:55.461,-0.33643,0.43018,-0.84521;
18:55:55.471,-0.33936,0.42969,-0.84814;
18:55:55.481,-0.33984,0.42993,-0.85181;
18:55:55.491,-0.34033,0.43091,-0.84912;
18:55:55.501,-0.34131,0.43188,-0.84351;
18:55:55.511,-0.34497,0.43457,-0.84009;
18:55:55.521,-0.34961,0.43921,-0.83667;
18:55:55.531,-0.35181,0.44043,-0.83789;
18:55:55.541,-0.35352,0.41895,-0.84570;
18:55:55.551,-0.35205,0.42236,-0.84424;
18:55:55.561,-0.34595,0.43774,-0.84131;
18:55:55.571,-0.34546,0.43823,-0.84497;
18:55:55.581,-0.34326,0.43408,-0.85181;
18:55:55.591,-0.33813,0.42236,-0.85010;
18:55:55.601,-0.33716,0.42969,-0.84351;
18:55:55.611,-0.33838,0.43896,-0.84766;
18:55:55.621,-0.34082,0.43872,-0.84937;
18:55:55.631,-0.34326,0.43262,-0.84692;
18:55:55.641,-0.34497,0.42505,-0.84375;
18:55:55.651,-0.34717,0.42334,-0.84131;
18:55:55.661,-0.34839,0.43042,-0.84009;
18:55:55.671,-0.34863,0.43042,-0.84448;
18:55:55.681,-0.34741,0.42554,-0.84302;
18:55:55.691,-0.34644,0.42603,-0.84546;
18:55:55.701,-0.34473,0.42920,-0.84180;
18:55:55.711,-0.34424,0.43140,-0.83887;
18:55:55.721,-0.34692,0.43433,-0.83911;
18:55:55.731,-0.35205,0.43506,-0.83740;
18:55:55.741,-0.35181,0.43359,-0.84082;
18:55:55.751,-0.35107,0.42969,-0.83862;
18:55:55.761,-0.34790,0.43506,-0.83740;
18:55:55.771,-0.34790,0.43799,-0.84375;
18:55:55.781,-0.34692,0.43115,-0.85107;
18:55:55.791,-0.34106,0.42212,-0.84888;
18:55:55.801,-0.33740,0.42627,-0.84619;
18:55:55.811,-0.33960,0.43359,-0.84668;
18:55:55.821,-0.34253,0.43677,-0.84888;
18:55:55.831,-0.34595,0.43042,-0.84839;
18:55:55.841,-0.34692,0.41992,-0.84668;
18:55:55.851,-0.34619,0.42651,-0.84863;
18:55:55.861,-0.34473,0.43091,-0.84741;
18:55:55.871,-0.34326,0.43018,-0.84424;
18:55:55.881,-0.34644,0.43408,-0.84326;
18:55:55.891,-0.34741,0.43579,-0.84302;
18:55:55.901,-0.35132,0.43164,-0.84399;
18:55:55.911,-0.35376,0.43018,-0.84668;
18:55:55.921,-0.35181,0.43164,-0.84985;
18:55:55.931,-0.35059,0.42944,-0.84863;
18:55:55.941,-0.35107,0.42432,-0.84082;
18:55:55.951,-0.35425,0.42847,-0.84033;
18:55:55.961,-0.35547,0.43408,-0.84570;
18:55:55.971,-0.35107,0.42993,-0.84692;
18:55:55.981,-0.34644,0.41821,-0.84351;
18:55:55.991,-0.34546,0.41553,-0.84131;
18:55:56.001,-0.34644,0.41724,-0.84570;
18:55:56.011,-0.34473,0.41772,-0.84521;
18:55:56.021,-0.34351,0.42065,-0.84448;
18:55:56.031,-0.34253,0.42456,-0.84644;
18:55:56.041,-0.33911,0.42651,-0.84644;
18:55:56.051,-0.33911,0.42798,-0.84717;
18:55:56.061,-0.34155,0.41846,-0.84229;
18:55:56.071,-0.34570,0.42944,-0.84253;
18:55:56.081,-0.34595,0.41821,-0.84741;
18:55:56.091,-0.34033,0.42578,-0.85254;
18:55:56.101,-0.33447,0.42822,-0.85522;
18:55:56.111,-0.33398,0.42456,-0.86035;
18:55:56.121,-0.33081,0.41943,-0.85986;
18:55:56.131,-0.32715,0.42285,-0.85913;
18:55:56.141,-0.32813,0.42090,-0.85938;
18:55:56.151,-0.32764,0.42627,-0.85522;
18:55:56.161,-0.32861,0.43335,-0.85693;
18:55:56.171,-0.33130,0.42920,-0.86035;
18:55:56.181,-0.33301,0.42188,-0.85229;
18:55:56.191,-0.33325,0.42065,-0.84668;
18:55:56.201,-0.33472,0.43115,-0.84912;
18:55:56.211,-0.33569,0.43457,-0.84692;
18:55:56.221,-0.33618,0.43701,-0.84546;
18:55:56.231,-0.33398,0.43799,-0.84717;
18:55:56.241,-0.33179,0.43872,-0.84473;
18:55:56.251,-0.33179,0.44653,-0.84277;
18:55:56.261,-0.32764,0.44873,-0.84180;
18:55:56.271,-0.32642,0.45166,-0.84253;
18:55:56.281,-0.32617,0.45337,-0.84253;
18:55:56.291,-0.32690,0.44629,-0.84229;
18:55:56.301,-0.32715,0.44165,-0.84180;
18:55:56.311,-0.33032,0.44897,-0.84058;
18:55:56.321,-0.33276,0.45483,-0.84326;
18:55:56.331,-0.33203,0.45728,-0.84448;
18:55:56.341,-0.33105,0.45654,-0.83984;
18:55:56.351,-0.32690,0.45239,-0.83789;
18:55:56.361,-0.32886,0.44971,-0.84229;
18:55:56.371,-0.33179,0.45044,-0.84351;
18:55:56.381,-0.32886,0.44653,-0.84595;
18:55:56.391,-0.32959,0.44385,-0.84692;
18:55:56.401,-0.32935,0.44507,-0.84692;
18:55:56.411,-0.32666,0.43799,-0.84644;
18:55:56.421,-0.32666,0.44214,-0.84399;
18:55:56.431,-0.32764,0.44751,-0.84448;
18:55:56.441,-0.33154,0.44800,-0.84375;
18:55:56.451,-0.32910,0.45044,-0.84375;
18:55:56.461,-0.32788,0.45288,-0.84375;
18:55:56.471,-0.32617,0.44995,-0.84521;
18:55:56.481,-0.32227,0.44312,-0.84448;
18:55:56.491,-0.32056,0.44507,-0.84692;
18:55:56.501,-0.32080,0.44507,-0.84790;
18:55:56.511,-0.32300,0.44287,-0.84888;
18:55:56.521,-0.32690,0.43970,-0.85181;
18:55:56.531,-0.32886,0.44067,-0.85034;
18:55:56.541,-0.32739,0.43921,-0.84937;
18:55:56.551,-0.32642,0.44434,-0.84741;
18:55:56.561,-0.32422,0.43945,-0.85278;
18:55:56.571,-0.32324,0.43848,-0.85425;
18:55:56.581,-0.32178,0.45435,-0.85474;
18:55:56.591,-0.32251,0.45288,-0.84766;
18:55:56.601,-0.32690,0.44653,-0.84082;
18:55:56.611,-0.33032,0.44141,-0.84204;
18:55:56.621,-0.33228,0.44043,-0.84326;
18:55:56.631,-0.33276,0.43677,-0.84668;
18:55:56.641,-0.33276,0.43408,-0.84399;
18:55:56.651,-0.33228,0.43506,-0.84033;
18:55:56.661,-0.33398,0.43994,-0.84204;
18:55:56.671,-0.33691,0.44287,-0.83887;
18:55:56.681,-0.33472,0.44238,-0.84229;
18:55:56.691,-0.33179,0.44360,-0.84546;
18:55:56.701,-0.32813,0.44629,-0.83862;
18:55:56.711,-0.32983,0.43994,-0.84448;
18:55:56.721,-0.34082,0.43579,-0.83887;
18:55:56.731,-0.33618,0.45898,-0.83667;
18:55:56.741,-0.33398,0.44580,-0.83984;
18:55:56.751,-0.33667,0.43384,-0.84302;
18:55:56.761,-0.33276,0.44873,-0.84448;
18:55:56.771,-0.32910,0.45190,-0.84644;
18:55:56.781,-0.32861,0.43896,-0.85425;
18:55:56.791,-0.32813,0.44409,-0.85278;
18:55:56.801,-0.32813,0.44775,-0.85596;
18:55:56.811,-0.33057,0.43604,-0.85669;
18:55:56.821,-0.32983,0.43848,-0.85010;
18:55:56.831,-0.32886,0.44653,-0.84619;
18:55:56.841,-0.33008,0.45410,-0.84326;
18:55:56.851,-0.33032,0.45020,-0.84888;
18:55:56.861,-0.33130,0.44116,-0.84863;
18:55:56.871,-0.32983,0.43848,-0.84766;
18:55:56.881,-0.33179,0.44092,-0.84644;
18:55:56.891,-0.33691,0.44238,-0.84204;
18:55:56.901,-0.34155,0.44092,-0.84229;
18:55:56.911,-0.34302,0.44019,-0.83789;
18:55:56.921,-0.34473,0.43628,-0.83716;
18:55:56.931,-0.34741,0.43628,-0.83911;
18:55:56.941,-0.34717,0.43701,-0.83765;
18:55:56.951,-0.34619,0.43213,-0.83765;
18:55:56.961,-0.34473,0.43286,-0.83765;
18:55:56.971,-0.34253,0.43628,-0.84131;
18:55:56.981,-0.34277,0.43921,-0.83984;
18:55:56.991,-0.34399,0.44263,-0.83667;
18:55:57.001,-0.34497,0.44824,-0.83618;
18:55:57.011,-0.34546,0.45264,-0.83252;
18:55:57.021,-0.34668,0.45483,-0.83179;
18:55:57.031,-0.34790,0.45435,-0.82959;
18:55:57.041,-0.34912,0.45142,-0.83057;
18:55:57.051,-0.34961,0.44897,-0.83008;
18:55:57.061,-0.34961,0.44141,-0.83228;
18:55:57.071,-0.34863,0.43481,-0.83057;
18:55:57.081,-0.34937,0.44092,-0.82813;
18:55:57.091,-0.34912,0.45264,-0.82983;
18:55:57.101,-0.34644,0.45703,-0.83276;
18:55:57.111,-0.34766,0.45142,-0.83447;
18:55:57.121,-0.34985,0.44873,-0.82983;
18:55:57.131,-0.35205,0.44458,-0.83154;
18:55:57.141,-0.34814,0.43921,-0.83423;
18:55:57.151,-0.34717,0.44238,-0.83984;
18:55:57.161,-0.34570,0.44385,-0.84204;
18:55:57.171,-0.33984,0.44800,-0.84180;
18:55:57.181,-0.33521,0.45239,-0.84497;
18:55:57.191,-0.33398,0.44727,-0.84326;
18:55:57.201,-0.33618,0.44751,-0.84497;
18:55:57.211,-0.34033,0.44873,-0.84741;
18:55:57.221,-0.34302,0.43799,-0.84180;
18:55:57.231,-0.34668,0.43579,-0.84082;
18:55:57.241,-0.35059,0.44824,-0.83911;
18:55:57.251,-0.34741,0.45752,-0.83643;
18:55:57.261,-0.34546,0.44922,-0.83374;
18:55:57.271,-0.34619,0.43823,-0.83765;
18:55:57.281,-0.34717,0.43604,-0.84033;
18:55:57.291,-0.34375,0.43921,-0.83960;
18:55:57.301,-0.33960,0.44922,-0.84131;
18:55:57.311,-0.34106,0.44922,-0.84106;
18:55:57.321,-0.34595,0.44556,-0.83789;
18:55:57.331,-0.35010,0.44287,-0.83398;
18:55:57.341,-0.34985,0.44116,-0.83569;
18:55:57.351,-0.35034,0.44678,-0.83301;
18:55:57.361,-0.34863,0.44409,-0.83374;
18:55:57.371,-0.34326,0.44312,-0.83789;
18:55:57.381,-0.34448,0.44507,-0.83911;
18:55:57.391,-0.33740,0.44849,-0.83838;
18:55:57.401,-0.34131,0.44360,-0.83984;
18:55:57.411,-0.34595,0.44238,-0.84082;
18:55:57.421,-0.34302,0.44092,-0.83789;
18:55:57.431,-0.34229,0.44629,-0.83813;
18:55:57.441,-0.34229,0.44751,-0.83936;
18:55:57.451,-0.34131,0.43921,-0.83789;
18:55:57.461,-0.34253,0.43652,-0.84058;
18:55:57.471,-0.34326,0.44287,-0.84302;
18:55:57.481,-0.34424,0.43921,-0.84521;
18:55:57.491,-0.34180,0.42993,-0.84326;
18:55:57.501,-0.33838,0.44189,-0.84375;
18:55:57.511,-0.33618,0.44751,-0.84375;
18:55:57.521,-0.33618,0.44067,-0.84595;
18:55:57.531,-0.33862,0.43311,-0.84570;
18:55:57.541,-0.33911,0.43311,-0.84424;
18:55:57.551,-0.33960,0.44189,-0.84229;
18:55:57.561,-0.34058,0.44922,-0.83960;
18:55:57.571,-0.34204,0.45117,-0.84473;
18:55:57.581,-0.34009,0.44189,-0.84326;
18:55:57.591,-0.34180,0.43823,-0.84180;
18:55:57.601,-0.34497,0.44189,-0.84106;
18:55:57.611,-0.34399,0.44067,-0.84058;
18:55:57.621,-0.34351,0.43359,-0.84204;
18:55:57.631,-0.34424,0.43579,-0.84546;
18:55:57.641,-0.34326,0.44287,-0.84692;
18:55:57.651,-0.34033,0.44678,-0.84302;
18:55:57.661,-0.33838,0.44702,-0.83960;
18:55:57.671,-0.33643,0.44824,-0.83960;
18:55:57.681,-0.33984,0.44800,-0.84131;
18:55:57.691,-0.34668,0.43921,-0.83887;
18:55:57.701,-0.34717,0.43872,-0.83643;
18:55:57.711,-0.34790,0.44043,-0.83398;
18:55:57.721,-0.35010,0.43628,-0.83130;
18:55:57.731,-0.35278,0.43799,-0.83032;
18:55:57.741,-0.35352,0.44336,-0.82568;
18:55:57.751,-0.35376,0.44141,-0.82056;
18:55:57.761,-0.35693,0.44263,-0.82544;
18:55:57.771,-0.35742,0.43628,-0.83130;
18:55:57.781,-0.35864,0.43530,-0.83081;
18:55:57.791,-0.35791,0.44287,-0.83276;
18:55:57.801,-0.34741,0.44336,-0.83813;
18:55:57.811,-0.34326,0.44873,-0.83936;
18:55:57.821,-0.33838,0.45166,-0.83862;
18:55:57.831,-0.33374,0.45654,-0.84009;
18:55:57.841,-0.33569,0.45605,-0.84155;
18:55:57.851,-0.33887,0.44971,-0.84790;
18:55:57.861,-0.34058,0.44507,-0.84570;
18:55:57.871,-0.33740,0.44531,-0.84180;
18:55:57.881,-0.33716,0.44873,-0.84277;
18:55:57.891,-0.34082,0.44775,-0.83838;
18:55:57.901,-0.34790,0.44092,-0.83618;
18:55:57.911,-0.35498,0.43384,-0.83667;
18:55:57.921,-0.36035,0.43652,-0.83350;
18:55:57.931,-0.36084,0.43896,-0.83569;
18:55:57.941,-0.35645,0.43726,-0.83423;
18:55:57.951,-0.34814,0.44092,-0.83496;
18:55:57.961,-0.34058,0.44531,-0.84277;
18:55:57.971,-0.33545,0.44409,-0.84546;
18:55:57.981,-0.33179,0.43823,-0.85107;
18:55:57.991,-0.33130,0.43384,-0.85254;
18:55:58.001,-0.33276,0.43384,-0.84692;
18:55:58.011,-0.33838,0.43799,-0.84473;
18:55:58.021,-0.34863,0.44043,-0.84106;
18:55:58.031,-0.35205,0.43726,-0.83594;
18:55:58.041,-0.35376,0.43872,-0.83667;
18:55:58.051,-0.36060,0.43604,-0.83691;
18:55:58.061,-0.35791,0.42554,-0.83350;
18:55:58.071,-0.35669,0.42773,-0.83032;
18:55:58.081,-0.35889,0.43628,-0.83032;
18:55:58.091,-0.33887,0.44360,-0.84375;
18:55:58.101,-0.33423,0.43677,-0.85254;
18:55:58.111,-0.33521,0.45117,-0.84692;
18:55:58.121,-0.34546,0.44434,-0.84595;
18:55:58.131,-0.34839,0.43237,-0.84326;
18:55:58.141,-0.35034,0.43115,-0.84058;
18:55:58.151,-0.35010,0.44116,-0.83960;
18:55:58.161,-0.34912,0.44824,-0.84180;
18:55:58.171,-0.34766,0.44604,-0.83911;
18:55:58.181,-0.35156,0.43799,-0.84082;
18:55:58.191,-0.34814,0.43335,-0.84155;
18:55:58.201,-0.34375,0.43359,-0.83765;
18:55:58.211,-0.34619,0.43359,-0.83838;
18:55:58.221,-0.34595,0.43262,-0.84082;
18:55:58.231,-0.34839,0.43433,-0.84253;
18:55:58.241,-0.35278,0.43555,-0.83569;
18:55:58.251,-0.35889,0.43042,-0.83179;
18:55:58.261,-0.35767,0.42578,-0.83716;
18:55:58.271,-0.35498,0.43335,-0.84058;
18:55:58.281,-0.35278,0.43970,-0.83984;
18:55:58.291,-0.34839,0.42969,-0.84302;
18:55:58.301,-0.34570,0.43018,-0.84521;
18:55:58.311,-0.34106,0.44507,-0.84351;
18:55:58.321,-0.33569,0.44873,-0.84399;
18:55:58.331,-0.33301,0.45068,-0.84253;
18:55:58.341,-0.33740,0.45215,-0.84424;
18:55:58.351,-0.34351,0.44336,-0.84229;
18:55:58.361,-0.34302,0.44189,-0.83545;
18:55:58.371,-0.35010,0.44312,-0.83569;
18:55:58.381,-0.35352,0.43799,-0.83838;
18:55:58.391,-0.35352,0.44019,-0.83789;
18:55:58.401,-0.35205,0.45166,-0.83447;
18:55:58.411,-0.34595,0.45605,-0.83472;
18:55:58.421,-0.33936,0.45288,-0.83618;
18:55:58.431,-0.33179,0.45117,-0.83740;
18:55:58.441,-0.33301,0.44458,-0.83984;
18:55:58.451,-0.34497,0.43311,-0.84155;
18:55:58.461,-0.35229,0.43286,-0.84106;
18:55:58.471,-0.34985,0.44458,-0.83984;
18:55:58.481,-0.34888,0.45068,-0.83325;
18:55:58.491,-0.34766,0.44922,-0.83057;
18:55:58.501,-0.34863,0.44824,-0.83667;
18:55:58.511,-0.35205,0.44824,-0.84058;
18:55:58.521,-0.35132,0.43994,-0.84204;
18:55:58.531,-0.34619,0.43628,-0.84009;
18:55:58.541,-0.34033,0.44019,-0.84082;
18:55:58.551,-0.34009,0.44067,-0.84277;
18:55:58.561,-0.34204,0.44165,-0.84351;
18:55:58.571,-0.34009,0.44458,-0.84253;
18:55:58.581,-0.34375,0.44507,-0.84253;
18:55:58.591,-0.34912,0.44214,-0.84131;
18:55:58.601,-0.34937,0.43872,-0.83618;
18:55:58.611,-0.34717,0.44873,-0.83643;
18:55:58.621,-0.34961,0.45801,-0.83813;
18:55:58.631,-0.35327,0.44995,-0.83447;
18:55:58.641,-0.35400,0.43945,-0.83618;
18:55:58.651,-0.35156,0.43140,-0.83398;
18:55:58.661,-0.34863,0.44092,-0.83179;
18:55:58.671,-0.34204,0.45020,-0.83643;
18:55:58.681,-0.33936,0.45068,-0.83838;
18:55:58.691,-0.34180,0.45068,-0.83911;
18:55:58.701,-0.34521,0.43701,-0.84131;
18:55:58.711,-0.34717,0.43042,-0.84204;
18:55:58.721,-0.34595,0.43774,-0.84155;
18:55:58.731,-0.34521,0.44434,-0.83862;
18:55:58.741,-0.34570,0.44434,-0.83716;
18:55:58.751,-0.34619,0.44092,-0.83813;
18:55:58.761,-0.34326,0.44360,-0.83789;
18:55:58.771,-0.34131,0.44775,-0.84033;
18:55:58.781,-0.34351,0.43652,-0.84375;
18:55:58.791,-0.34009,0.44189,-0.83789;
18:55:58.801,-0.34082,0.44727,-0.83716;
18:55:58.811,-0.35059,0.44043,-0.83960;
18:55:58.821,-0.35571,0.43164,-0.83936;
18:55:58.831,-0.34985,0.42749,-0.83472;
18:55:58.841,-0.34570,0.43628,-0.83447;
18:55:58.851,-0.34448,0.44604,-0.83594;
18:55:58.861,-0.34302,0.44800,-0.83789;
18:55:58.871,-0.34009,0.44385,-0.84058;
18:55:58.881,-0.34204,0.44067,-0.84448;
18:55:58.891,-0.34302,0.43701,-0.84717;
18:55:58.901,-0.33716,0.43237,-0.84937;
18:55:58.911,-0.33691,0.44312,-0.84937;
18:55:58.921,-0.33960,0.44434,-0.84692;
18:55:58.931,-0.33765,0.43945,-0.85034;
18:55:58.941,-0.33691,0.44165,-0.85107;
18:55:58.951,-0.33618,0.44336,-0.84888;
18:55:58.961,-0.33765,0.44263,-0.84473;
18:55:58.971,-0.34302,0.43164,-0.84766;
18:55:58.981,-0.34644,0.42676,-0.84570;
18:55:58.991,-0.34644,0.43652,-0.84399;
18:55:59.001,-0.34473,0.44629,-0.84351;
18:55:59.011,-0.34180,0.44287,-0.83789;
18:55:59.021,-0.34302,0.43628,-0.83789;
18:55:59.031,-0.34424,0.43774,-0.84253;
18:55:59.041,-0.34399,0.43921,-0.84106;
18:55:59.051,-0.34546,0.44189,-0.83789;
18:55:59.061,-0.34839,0.44360,-0.83545;
18:55:59.071,-0.35156,0.44189,-0.83325;
18:55:59.081,-0.34985,0.44507,-0.83154;
18:55:59.091,-0.35205,0.44897,-0.82642;
18:55:59.101,-0.35718,0.44580,-0.82544;
18:55:59.111,-0.36108,0.44556,-0.82813;
18:55:59.121,-0.36035,0.44531,-0.83032;
18:55:59.131,-0.35742,0.45093,-0.83398;
18:55:59.141,-0.35010,0.45605,-0.83203;
18:55:59.151,-0.34692,0.45239,-0.83252;
18:55:59.161,-0.34521,0.45361,-0.83667;
18:55:59.171,-0.34399,0.45044,-0.83545;
18:55:59.181,-0.34497,0.44653,-0.83813;
18:55:59.191,-0.34302,0.44751,-0.83740;
18:55:59.201,-0.34424,0.45239,-0.83447;
18:55:59.211,-0.34326,0.45728,-0.83594;
18:55:59.221,-0.34033,0.45459,-0.83813;
18:55:59.231,-0.33936,0.44336,-0.83765;
18:55:59.241,-0.34180,0.44604,-0.83838;
18:55:59.251,-0.34375,0.45044,-0.83862;
18:55:59.261,-0.34717,0.45020,-0.83887;
18:55:59.271,-0.34473,0.45313,-0.83667;
18:55:59.281,-0.34399,0.45508,-0.83691;
18:55:59.291,-0.34497,0.45435,-0.83496;
18:55:59.301,-0.34399,0.44995,-0.83130;
18:55:59.311,-0.35059,0.44556,-0.83691;
18:55:59.321,-0.34741,0.44824,-0.84009;
18:55:59.331,-0.34692,0.44702,-0.83813;
18:55:59.341,-0.34644,0.44360,-0.83691;
18:55:59.351,-0.34326,0.44751,-0.83813;
18:55:59.361,-0.34229,0.45215,-0.83813;
18:55:59.371,-0.34106,0.45435,-0.83936;
18:55:59.381,-0.34058,0.44604,-0.83838;
18:55:59.391,-0.34277,0.44287,-0.83813;
18:55:59.401,-0.35107,0.44141,-0.83862;
18:55:59.411,-0.35034,0.43774,-0.83594;
18:55:59.421,-0.35010,0.43604,-0.83252;
18:55:59.431,-0.35229,0.43823,-0.83032;
18:55:59.441,-0.35303,0.44092,-0.83032;
18:55:59.451,-0.35596,0.44409,-0.83154;
18:55:59.461,-0.34814,0.44116,-0.83667;
18:55:59.471,-0.34448,0.43066,-0.84570;
18:55:59.481,-0.33423,0.45459,-0.85132;
18:55:59.491,-0.33203,0.43433,-0.85254;
18:55:59.501,-0.34009,0.43384,-0.84814;
18:55:59.511,-0.34351,0.43604,-0.84229;
18:55:59.521,-0.34546,0.43774,-0.83936;
18:55:59.531,-0.34717,0.44385,-0.84058;
18:55:59.541,-0.34790,0.44702,-0.83936;
18:55:59.551,-0.34595,0.44165,-0.84448;
18:55:59.561,-0.34473,0.43628,-0.84326;
18:55:59.571,-0.34351,0.43774,-0.83862;
18:55:59.581,-0.34204,0.43848,-0.83862;
18:55:59.591,-0.34351,0.44360,-0.83838;
18:55:59.601,-0.35034,0.45532,-0.83105;
18:55:59.611,-0.34888,0.44434,-0.82983;
18:55:59.621,-0.35034,0.45166,-0.83301;
18:55:59.631,-0.34497,0.45459,-0.83325;
18:55:59.641,-0.34155,0.44995,-0.83154;
18:55:59.651,-0.34204,0.45825,-0.84033;
18:55:59.661,-0.34058,0.45850,-0.84277;
18:55:59.671,-0.34277,0.44849,-0.83398;
18:55:59.681,-0.34644,0.44336,-0.83496;
18:55:59.691,-0.34424,0.45483,-0.83618;
18:55:59.701,-0.33716,0.46973,-0.83789;
18:55:59.711,-0.34058,0.47070,-0.83691;
18:55:59.721,-0.34692,0.45825,-0.83105;
18:55:59.731,-0.34521,0.44873,-0.82690;
18:55:59.741,-0.35132,0.44751,-0.82617;
18:55:59.751,-0.35425,0.45435,-0.82983;
18:55:59.761,-0.35278,0.45410,-0.83057;
18:55:59.771,-0.35229,0.45264,-0.83105;
18:55:59.781,-0.35156,0.45361,-0.83472;
18:55:59.791,-0.34766,0.44336,-0.83545;
18:55:59.801,-0.34546,0.43945,-0.83447;
18:55:59.811,-0.34595,0.44238,-0.83887;
18:55:59.821,-0.34595,0.44409,-0.83887;
18:55:59.831,-0.34302,0.44873,-0.83569;
18:55:59.841,-0.34131,0.45337,-0.83472;
18:55:59.851,-0.34082,0.45508,-0.83447;
18:55:59.861,-0.33862,0.45337,-0.83496;
18:55:59.871,-0.34399,0.45068,-0.83496;
18:55:59.881,-0.34717,0.44409,-0.83643;
18:55:59.891,-0.34644,0.44434,-0.83472;
18:55:59.901,-0.34399,0.45386,-0.83203;
18:55:59.911,-0.34302,0.46143,-0.83301;
18:55:59.921,-0.34131,0.46387,-0.83643;
18:55:59.931,-0.34448,0.45605,-0.83423;
18:55:59.941,-0.34570,0.45801,-0.83228;
18:55:59.951,-0.34595,0.45874,-0.82983;
18:55:59.961,-0.34766,0.45508,-0.82983;
18:55:59.971,-0.34985,0.45264,-0.83423;
18:55:59.981,-0.35083,0.45093,-0.83325;
18:55:59.991,-0.34668,0.45337,-0.83423;
18:56:00.001,-0.34497,0.45190,-0.83423;
18:56:00.011,-0.34668,0.44580,-0.83667;
18:56:00.021,-0.34497,0.44409,-0.83984;
18:56:00.031,-0.33911,0.44946,-0.84155;
18:56:00.041,-0.34033,0.44629,-0.84155;
18:56:00.051,-0.34058,0.43604,-0.84302;
18:56:00.061,-0.33887,0.43213,-0.83960;
18:56:00.071,-0.34595,0.44653,-0.83398;
18:56:00.081,-0.34570,0.45337,-0.83911;
18:56:00.091,-0.33862,0.44531,-0.83765;
18:56:00.101,-0.33765,0.44775,-0.84204;
18:56:00.111,-0.33569,0.45410,-0.84131;
18:56:00.121,-0.33960,0.45459,-0.83936;
18:56:00.131,-0.34229,0.44873,-0.83276;
18:56:00.141,-0.34326,0.45093,-0.83154;
18:56:00.151,-0.34741,0.44873,-0.83276;
18:56:00.161,-0.34644,0.44702,-0.83350;
18:56:00.171,-0.34375,0.45654,-0.83569;
18:56:00.181,-0.34253,0.45508,-0.83472;
18:56:00.191,-0.34424,0.45215,-0.83423;
18:56:00.201,-0.34692,0.44775,-0.83765;
18:56:00.211,-0.34814,0.44971,-0.83838;
18:56:00.221,-0.34790,0.46387,-0.83838;
18:56:00.231,-0.34570,0.46313,-0.83667;
18:56:00.241,-0.34351,0.45337,-0.83813;
18:56:00.251,-0.34570,0.45410,-0.84180;
18:56:00.261,-0.34595,0.45605,-0.83887;
18:56:00.271,-0.34277,0.45386,-0.83691;
18:56:00.281,-0.33911,0.45093,-0.83765;
18:56:00.291,-0.33960,0.45190,-0.83618;
18:56:00.301,-0.34204,0.45703,-0.84033;
18:56:00.311,-0.33813,0.46509,-0.84277;
18:56:00.321,-0.33643,0.47192,-0.83984;
18:56:00.331,-0.33960,0.46680,-0.82959;
18:56:00.341,-0.34619,0.45459,-0.82617;
18:56:00.351,-0.35229,0.45923,-0.83350;
18:56:00.361,-0.35083,0.45923,-0.82935;
18:56:00.371,-0.34888,0.45532,-0.82739;
18:56:00.381,-0.34351,0.46582,-0.82837;
18:56:00.391,-0.34790,0.46436,-0.82715;
18:56:00.401,-0.35376,0.46240,-0.82544;
18:56:00.411,-0.34985,0.45728,-0.81958;
18:56:00.421,-0.35596,0.46387,-0.81885;
18:56:00.431,-0.36719,0.46021,-0.81836;
18:56:00.441,-0.36548,0.45166,-0.82300;
18:56:00.451,-0.35596,0.46436,-0.82422;
18:56:00.461,-0.34937,0.46094,-0.82715;
18:56:00.471,-0.34180,0.45728,-0.83105;
18:56:00.481,-0.34204,0.45264,-0.83618;
18:56:00.491,-0.33862,0.45288,-0.84424;
18:56:00.501,-0.33081,0.46167,-0.84619;
18:56:00.511,-0.33643,0.46289,-0.84375;
18:56:00.521,-0.33862,0.46216,-0.83667;
18:56:00.531,-0.33765,0.45630,-0.83350;
18:56:00.541,-0.34766,0.44922,-0.83521;
18:56:00.551,-0.35718,0.44238,-0.83667;
18:56:00.561,-0.35596,0.44116,-0.83081;
18:56:00.571,-0.35547,0.45752,-0.83154;
18:56:00.581,-0.34985,0.46191,-0.83398;
18:56:00.591,-0.34839,0.46021,-0.83643;
18:56:00.601,-0.34668,0.44678,-0.83765;
18:56:00.611,-0.34131,0.43628,-0.83789;
18:56:00.621,-0.33984,0.44385,-0.84131;
18:56:00.631,-0.33862,0.44922,-0.83887;
18:56:00.641,-0.32446,0.45386,-0.83105;
18:56:00.651,-0.37183,0.46899,-0.83203;
18:56:00.661,-0.35938,0.43921,-0.80884;
18:56:00.671,-0.27954,0.41211,-0.75854;
18:56:00.681,-0.32861,0.42065,-0.75684;
18:56:00.691,-0.35742,0.38916,-0.80322;
18:56:00.701,-0.34839,0.40063,-0.81982;
18:56:00.711,-0.42163,0.47168,-0.85571;
18:56:00.721,-0.45532,0.57007,-0.85767;
18:56:00.731,-0.29395,0.32422,-0.78003;
18:56:00.741,-0.29199,0.44751,-0.87622;
18:56:00.751,-0.30542,0.52026,-0.88281;
18:56:00.761,-0.34595,0.47632,-0.87915;
18:56:00.771,-0.33545,0.40649,-0.84912;
18:56:00.781,-0.34595,0.41626,-0.83960;
18:56:00.791,-0.34082,0.44312,-0.83740;
18:56:00.801,-0.33643,0.47266,-0.83691;
18:56:00.811,-0.34082,0.48071,-0.83936;
18:56:00.821,-0.33740,0.46533,-0.83472;
18:56:00.831,-0.33716,0.45459,-0.83057;
18:56:00.841,-0.35107,0.44702,-0.83130;
18:56:00.851,-0.36621,0.45117,-0.83325;
18:56:00.861,-0.37549,0.46265,-0.82007;
18:56:00.871,-0.37427,0.45337,-0.80396;
18:56:00.881,-0.36401,0.42383,-0.79883;
18:56:00.891,-0.36963,0.42505,-0.81494;
18:56:00.901,-0.35815,0.45264,-0.83081;
18:56:00.911,-0.33325,0.46753,-0.83667;
18:56:00.921,-0.32568,0.46875,-0.84546;
18:56:00.931,-0.31909,0.45459,-0.85083;
18:56:00.941,-0.31030,0.44409,-0.85449;
18:56:00.951,-0.32324,0.44727,-0.86133;
18:56:00.961,-0.34082,0.45166,-0.85913;
18:56:00.971,-0.35327,0.45337,-0.84937;
18:56:00.981,-0.35083,0.45557,-0.83813;
18:56:00.991,-0.35986,0.45703,-0.83325;
18:56:01.001,-0.36230,0.43311,-0.82886;
18:56:01.011,-0.32813,0.41162,-0.82422;
18:56:01.021,-0.34326,0.44507,-0.83447;
18:56:01.031,-0.33643,0.46899,-0.84302;
18:56:01.041,-0.31812,0.46167,-0.83838;
18:56:01.051,-0.34180,0.45166,-0.84497;
18:56:01.061,-0.35742,0.44727,-0.85327;
18:56:01.071,-0.35107,0.44678,-0.83105;
18:56:01.081,-0.35571,0.45386,-0.81372;
18:56:01.091,-0.36670,0.45898,-0.82520;
18:56:01.101,-0.36255,0.43774,-0.83472;
18:56:01.111,-0.35205,0.41675,-0.82373;
18:56:01.121,-0.35449,0.43604,-0.82178;
18:56:01.131,-0.36646,0.47046,-0.84448;
18:56:01.141,-0.35718,0.46753,-0.85181;
18:56:01.151,-0.33813,0.43945,-0.83813;
18:56:01.161,-0.33789,0.43750,-0.84180;
18:56:01.171,-0.34912,0.44751,-0.84302;
18:56:01.181,-0.31763,0.44385,-0.82788;
18:56:01.191,-0.31885,0.45923,-0.83472;
18:56:01.201,-0.34619,0.47485,-0.86401;
18:56:01.211,-0.33594,0.46387,-0.87231;
18:56:01.221,-0.32129,0.43677,-0.84888;
18:56:01.231,-0.32739,0.42627,-0.83643;
18:56:01.241,-0.34790,0.43555,-0.84668;
18:56:01.251,-0.35669,0.45728,-0.85620;
18:56:01.261,-0.34204,0.46777,-0.84497;
18:56:01.271,-0.33545,0.46631,-0.82568;
18:56:01.281,-0.34961,0.45361,-0.82324;
18:56:01.291,-0.34595,0.42676,-0.82642;
18:56:01.301,-0.35107,0.42090,-0.82764;
18:56:01.311,-0.35229,0.43091,-0.84106;
18:56:01.321,-0.33032,0.42334,-0.84399;
18:56:01.331,-0.31616,0.43701,-0.83203;
18:56:01.341,-0.33716,0.48120,-0.84644;
18:56:01.351,-0.34937,0.49146,-0.85864;
18:56:01.361,-0.34790,0.48389,-0.84839;
18:56:01.371,-0.35400,0.46411,-0.83691;
18:56:01.381,-0.35718,0.44287,-0.82959;
18:56:01.391,-0.31226,0.30957,-0.77979;
18:56:01.401,-0.37866,0.55835,-0.90063;
18:56:01.411,-0.32056,0.47827,-0.79858;
18:56:01.421,-0.36279,0.37305,-0.83936;
18:56:01.431,-0.36865,0.41162,-0.85645;
18:56:01.441,-0.35010,0.46753,-0.84546;
18:56:01.451,-0.35400,0.50073,-0.84253;
18:56:01.461,-0.36475,0.52759,-0.83716;
18:56:01.471,-0.37036,0.47705,-0.83740;
18:56:01.481,-0.37817,0.39209,-0.82861;
18:56:01.491,-0.36597,0.34595,-0.82129;
18:56:01.501,-0.32739,0.37134,-0.82910;
18:56:01.511,-0.35522,0.53125,-0.85889;
18:56:01.521,-0.37378,0.57349,-0.83740;
18:56:01.531,-0.33374,0.46167,-0.81348;
18:56:01.541,-0.34106,0.38501,-0.83667;
18:56:01.551,-0.36841,0.39258,-0.84619;
18:56:01.561,-0.36963,0.42578,-0.85181;
18:56:01.571,-0.34253,0.44678,-0.84497;
18:56:01.581,-0.30078,0.48022,-0.82764;
18:56:01.591,-0.26831,0.49146,-0.82349;
18:56:01.601,-0.32007,0.46436,-0.84058;
18:56:01.611,-0.34229,0.44971,-0.84790;
18:56:01.621,-0.31177,0.48022,-0.84692;
18:56:01.631,-0.32739,0.47729,-0.84082;
18:56:01.641,-0.32495,0.45386,-0.84253;
18:56:01.651,-0.31567,0.47363,-0.84497;
18:56:01.661,-0.32471,0.46606,-0.84424;
18:56:01.671,-0.32568,0.46973,-0.84155;
18:56:01.681,-0.31982,0.46509,-0.83521;
18:56:01.691,-0.33081,0.45288,-0.82813;
18:56:01.701,-0.33765,0.46387,-0.82983;
18:56:01.711,-0.33130,0.46240,-0.83154;
18:56:01.721,-0.33301,0.45166,-0.83447;
18:56:01.731,-0.33374,0.44800,-0.83105;
18:56:01.741,-0.33618,0.45996,-0.82813;
18:56:01.751,-0.33398,0.46704,-0.83691;
18:56:01.761,-0.32935,0.46973,-0.84033;
18:56:01.771,-0.32642,0.45972,-0.84424;
18:56:01.781,-0.31665,0.44824,-0.84033;
18:56:01.791,-0.31860,0.46240,-0.84375;
18:56:01.801,-0.32373,0.47144,-0.85107;
18:56:01.811,-0.32080,0.45679,-0.83838;
18:56:01.821,-0.32349,0.45459,-0.83154;
18:56:01.831,-0.34033,0.46387,-0.83521;
18:56:01.841,-0.34668,0.47290,-0.83081;
18:56:01.851,-0.34644,0.47217,-0.82495;
18:56:01.861,-0.34277,0.46265,-0.82471;
18:56:01.871,-0.33032,0.47119,-0.82617;
18:56:01.881,-0.32886,0.47998,-0.82910;
18:56:01.891,-0.33203,0.47534,-0.82593;
18:56:01.901,-0.33203,0.47876,-0.82446;
18:56:01.911,-0.33350,0.47559,-0.82373;
18:56:01.921,-0.33569,0.46387,-0.82910;
18:56:01.931,-0.35571,0.46289,-0.83691;
18:56:01.941,-0.36035,0.46167,-0.83496;
18:56:01.951,-0.35132,0.46436,-0.83057;
18:56:01.961,-0.34668,0.48120,-0.82251;
18:56:01.971,-0.34521,0.49023,-0.81372;
18:56:01.981,-0.34912,0.48828,-0.81421;
18:56:01.991,-0.35229,0.48535,-0.82007;
18:56:02.001,-0.35278,0.47656,-0.81860;
18:56:02.011,-0.34058,0.46729,-0.82031;
18:56:02.021,-0.33960,0.47314,-0.81323;
18:56:02.031,-0.35547,0.48999,-0.80859;
18:56:02.041,-0.36548,0.48877,-0.80396;
18:56:02.051,-0.38306,0.45825,-0.82007;
18:56:02.061,-0.34888,0.48096,-0.83569;
18:56:02.071,-0.33862,0.46777,-0.81860;
18:56:02.081,-0.35400,0.47583,-0.83374;
18:56:02.091,-0.32202,0.47852,-0.81665;
18:56:02.101,-0.33154,0.48706,-0.83130;
18:56:02.111,-0.34131,0.48730,-0.84570;
18:56:02.121,-0.32520,0.48071,-0.84619;
18:56:02.131,-0.34204,0.47095,-0.85571;
18:56:02.141,-0.35156,0.46875,-0.85156;
18:56:02.151,-0.33643,0.47461,-0.83740;
18:56:02.161,-0.35278,0.46753,-0.83057;
18:56:02.171,-0.34888,0.45142,-0.82373;
18:56:02.181,-0.35229,0.47437,-0.81543;
18:56:02.191,-0.36597,0.48706,-0.82349;
18:56:02.201,-0.35498,0.45972,-0.84839;
18:56:02.211,-0.36377,0.45508,-0.85669;
18:56:02.221,-0.36865,0.46436,-0.84033;
18:56:02.231,-0.37378,0.47095,-0.81909;
18:56:02.241,-0.37109,0.46167,-0.80542;
18:56:02.251,-0.36987,0.44409,-0.80688;
18:56:02.261,-0.38062,0.43750,-0.82983;
18:56:02.271,-0.37402,0.44165,-0.85059;
18:56:02.281,-0.36157,0.45190,-0.85132;
18:56:02.291,-0.35718,0.45557,-0.84497;
18:56:02.301,-0.35522,0.46167,-0.84131;
18:56:02.311,-0.35107,0.45508,-0.84058;
18:56:02.321,-0.34961,0.44263,-0.83813;
18:56:02.331,-0.34302,0.44189,-0.83569;
18:56:02.341,-0.33862,0.42725,-0.83740;
18:56:02.351,-0.33691,0.41699,-0.84595;
18:56:02.361,-0.33203,0.42432,-0.84814;
18:56:02.371,-0.33545,0.44556,-0.83765;
18:56:02.381,-0.33057,0.44727,-0.83276;
18:56:02.391,-0.32178,0.43457,-0.83374;
18:56:02.401,-0.33008,0.42236,-0.83740;
18:56:02.411,-0.33813,0.40503,-0.83838;
18:56:02.421,-0.34448,0.42310,-0.82617;
18:56:02.431,-0.33618,0.45386,-0.82251;
18:56:02.441,-0.33936,0.46167,-0.83716;
18:56:02.451,-0.34839,0.46143,-0.85132;
18:56:02.461,-0.33228,0.45288,-0.84961;
18:56:02.471,-0.33081,0.43799,-0.85278;
18:56:02.481,-0.33447,0.43042,-0.84692;
18:56:02.491,-0.33618,0.43896,-0.83691;
18:56:02.501,-0.32959,0.47144,-0.83398;
18:56:02.511,-0.33081,0.49487,-0.83350;
18:56:02.521,-0.33594,0.47070,-0.84131;
18:56:02.531,-0.31641,0.43237,-0.83984;
18:56:02.541,-0.34326,0.42529,-0.84326;
18:56:02.551,-0.34741,0.43042,-0.83984;
18:56:02.561,-0.31152,0.43970,-0.83398;
18:56:02.571,-0.34375,0.44604,-0.85083;
18:56:02.581,-0.34253,0.44336,-0.85303;
18:56:02.591,-0.31030,0.44702,-0.84326;
18:56:02.601,-0.29932,0.44287,-0.83032;
18:56:02.611,-0.33105,0.45679,-0.83301;
18:56:02.621,-0.34546,0.45459,-0.84766;
18:56:02.631,-0.33789,0.44092,-0.84839;
18:56:02.641,-0.33667,0.42188,-0.84155;
18:56:02.651,-0.31177,0.42114,-0.82837;
18:56:02.661,-0.33374,0.46118,-0.83032;
18:56:02.671,-0.34351,0.45825,-0.84009;
18:56:02.681,-0.33276,0.44189,-0.84839;
18:56:02.691,-0.33057,0.43359,-0.85059;
18:56:02.701,-0.32617,0.43286,-0.84473;
18:56:02.711,-0.32324,0.45093,-0.84180;
18:56:02.721,-0.31665,0.46021,-0.85107;
18:56:02.731,-0.31836,0.44971,-0.84985;
18:56:02.741,-0.32227,0.45239,-0.83838;
18:56:02.751,-0.32446,0.46118,-0.83423;
18:56:02.761,-0.33521,0.46411,-0.84106;
18:56:02.771,-0.32373,0.46216,-0.83740;
18:56:02.781,-0.32837,0.45459,-0.83643;
18:56:02.791,-0.33545,0.44873,-0.83984;
18:56:02.801,-0.32813,0.44092,-0.84253;
18:56:02.811,-0.33008,0.45679,-0.84351;
18:56:02.821,-0.32544,0.47949,-0.84326;
18:56:02.831,-0.32910,0.47266,-0.83960;
18:56:02.841,-0.32983,0.45386,-0.83618;
18:56:02.851,-0.33154,0.44238,-0.84131;
18:56:02.861,-0.34058,0.44385,-0.84204;
18:56:02.871,-0.33740,0.45654,-0.83496;
18:56:02.881,-0.33228,0.46167,-0.83545;
18:56:02.891,-0.32593,0.44873,-0.83594;
18:56:02.901,-0.32764,0.44385,-0.83716;
18:56:02.911,-0.33398,0.45166,-0.83838;
18:56:02.921,-0.32861,0.46069,-0.83838;
18:56:02.931,-0.32739,0.45703,-0.84033;
18:56:02.941,-0.32886,0.44434,-0.83740;
18:56:02.951,-0.32861,0.44800,-0.83813;
18:56:02.961,-0.33032,0.46240,-0.83691;
18:56:02.971,-0.33179,0.46851,-0.84155;
18:56:02.981,-0.33179,0.46777,-0.84082;
18:56:02.991,-0.32983,0.46802,-0.83862;
18:56:03.001,-0.33374,0.46313,-0.84009;
18:56:03.011,-0.33301,0.46216,-0.83569;
18:56:03.021,-0.33081,0.46606,-0.83765;
18:56:03.031,-0.33130,0.46729,-0.83862;
18:56:03.041,-0.32959,0.47412,-0.83862;
18:56:03.051,-0.32959,0.47510,-0.83984;
18:56:03.061,-0.32910,0.46875,-0.84229;
18:56:03.071,-0.32910,0.46631,-0.83936;
18:56:03.081,-0.33374,0.46777,-0.83594;
18:56:03.091,-0.33691,0.47583,-0.83472;
18:56:03.101,-0.34912,0.47583,-0.83081;
18:56:03.111,-0.35059,0.46387,-0.82446;
18:56:03.121,-0.34473,0.45532,-0.81860;
18:56:03.131,-0.34180,0.46021,-0.82471;
18:56:03.141,-0.33496,0.47412,-0.83301;
18:56:03.151,-0.33154,0.47998,-0.83276;
18:56:03.161,-0.33350,0.48193,-0.83472;
18:56:03.171,-0.34204,0.47803,-0.83374;
18:56:03.181,-0.34375,0.47827,-0.83008;
18:56:03.191,-0.34473,0.47900,-0.82349;
18:56:03.201,-0.34888,0.46509,-0.81860;
18:56:03.211,-0.34595,0.45996,-0.81445;
18:56:03.221,-0.33765,0.46924,-0.81079;
18:56:03.231,-0.33008,0.48560,-0.81714;
18:56:03.241,-0.32837,0.48999,-0.82813;
18:56:03.251,-0.32861,0.48364,-0.83179;
18:56:03.261,-0.32275,0.48657,-0.82568;
18:56:03.271,-0.32251,0.48706,-0.82275;
18:56:03.281,-0.33179,0.48730,-0.82520;
18:56:03.291,-0.33838,0.47339,-0.83325;
18:56:03.301,-0.34229,0.46729,-0.82813;
18:56:03.311,-0.34546,0.48193,-0.82104;
18:56:03.321,-0.35278,0.49072,-0.82031;
18:56:03.331,-0.36328,0.49146,-0.81885;
18:56:03.341,-0.36084,0.48218,-0.81738;
18:56:03.351,-0.35278,0.48242,-0.81250;
18:56:03.361,-0.34766,0.48730,-0.81396;
18:56:03.371,-0.34277,0.48560,-0.81958;
18:56:03.381,-0.34473,0.48096,-0.82495;
18:56:03.391,-0.34937,0.47900,-0.83179;
18:56:03.401,-0.35083,0.46533,-0.82886;
18:56:03.411,-0.34814,0.46826,-0.83081;
18:56:03.421,-0.34326,0.45679,-0.83936;
18:56:03.431,-0.34277,0.43677,-0.84180;
18:56:03.441,-0.34229,0.44214,-0.84229;
18:56:03.451,-0.34302,0.44653,-0.83472;
18:56:03.461,-0.34106,0.45947,-0.83325;
18:56:03.471,-0.34180,0.46948,-0.83105;
18:56:03.481,-0.34839,0.44897,-0.82910;
18:56:03.491,-0.36304,0.44897,-0.83179;
18:56:03.501,-0.36523,0.46289,-0.83130;
18:56:03.511,-0.35425,0.47217,-0.82764;
18:56:03.521,-0.34961,0.48462,-0.82983;
18:56:03.531,-0.34985,0.48120,-0.82715;
18:56:03.541,-0.34570,0.47607,-0.82422;
18:56:03.551,-0.34399,0.48218,-0.82642;
18:56:03.561,-0.34229,0.46753,-0.82837;
18:56:03.571,-0.33911,0.45728,-0.82397;
18:56:03.581,-0.34399,0.46948,-0.82739;
18:56:03.591,-0.35522,0.47656,-0.83789;
18:56:03.601,-0.36475,0.47632,-0.83398;
18:56:03.611,-0.36377,0.47217,-0.82422;
18:56:03.621,-0.35742,0.47046,-0.82373;
18:56:03.631,-0.35522,0.47070,-0.82983;
18:56:03.641,-0.35425,0.47705,-0.83252;
18:56:03.651,-0.34521,0.48486,-0.83081;
18:56:03.661,-0.33984,0.44775,-0.82935;
18:56:03.671,-0.34521,0.43262,-0.82886;
18:56:03.681,-0.34839,0.45776,-0.83179;
18:56:03.691,-0.34863,0.46851,-0.83545;
18:56:03.701,-0.34692,0.48242,-0.83887;
18:56:03.711,-0.34741,0.48975,-0.83618;
18:56:03.721,-0.34839,0.48169,-0.82886;
18:56:03.731,-0.35205,0.45093,-0.82056;
18:56:03.741,-0.35254,0.45190,-0.81470;
18:56:03.751,-0.37085,0.46875,-0.83105;
18:56:03.761,-0.36255,0.47681,-0.83423;
18:56:03.771,-0.35767,0.47437,-0.83618;
18:56:03.781,-0.35742,0.46680,-0.83325;
18:56:03.791,-0.34473,0.46240,-0.82983;
18:56:03.801,-0.35913,0.46240,-0.83301;
18:56:03.811,-0.36353,0.47729,-0.83643;
18:56:03.821,-0.33618,0.48169,-0.82373;
18:56:03.831,-0.34424,0.46313,-0.81470;
18:56:03.841,-0.36670,0.45288,-0.82715;
18:56:03.851,-0.37231,0.45581,-0.83618;
18:56:03.861,-0.37231,0.46143,-0.82593;
18:56:03.871,-0.35913,0.47241,-0.82007;
18:56:03.881,-0.36328,0.47852,-0.81738;
18:56:03.891,-0.36426,0.48022,-0.80786;
18:56:03.901,-0.35156,0.47119,-0.80566;
18:56:03.911,-0.35864,0.46094,-0.81934;
18:56:03.921,-0.36914,0.47510,-0.84399;
18:56:03.931,-0.36084,0.47729,-0.84033;
18:56:03.941,-0.35620,0.47217,-0.81836;
18:56:03.951,-0.36377,0.47461,-0.81494;
18:56:03.961,-0.37183,0.47095,-0.82324;
18:56:03.971,-0.37085,0.46240,-0.82153;
18:56:03.981,-0.36108,0.45483,-0.80981;
18:56:03.991,-0.35962,0.45972,-0.81323;
18:56:04.001,-0.35498,0.46729,-0.82715;
18:56:04.011,-0.35547,0.48511,-0.83398;
18:56:04.021,-0.35645,0.46411,-0.80688;
18:56:04.031,-0.36890,0.47437,-0.81323;
18:56:04.041,-0.37354,0.47681,-0.81934;
18:56:04.051,-0.37231,0.48706,-0.81152;
18:56:04.061,-0.36694,0.50977,-0.79126;
18:56:04.071,-0.36597,0.50049,-0.79102;
18:56:04.081,-0.37744,0.48560,-0.81885;
18:56:04.091,-0.38745,0.47314,-0.82910;
18:56:04.101,-0.38818,0.47021,-0.82397;
18:56:04.111,-0.38037,0.49243,-0.81177;
18:56:04.121,-0.36475,0.51489,-0.79614;
18:56:04.131,-0.34692,0.52563,-0.79932;
18:56:04.141,-0.34570,0.52441,-0.80933;
18:56:04.151,-0.34131,0.50269,-0.82202;
18:56:04.161,-0.32764,0.48413,-0.83569;
18:56:04.171,-0.32202,0.47705,-0.83081;
18:56:04.181,-0.32446,0.46948,-0.82764;
18:56:04.191,-0.33472,0.46997,-0.82983;
18:56:04.201,-0.33594,0.49243,-0.82544;
18:56:04.211,-0.32886,0.51807,-0.81445;
18:56:04.221,-0.33008,0.51050,-0.81738;
18:56:04.231,-0.34644,0.48218,-0.82861;
18:56:04.241,-0.37402,0.46216,-0.83008;
18:56:04.251,-0.37769,0.46460,-0.82715;
18:56:04.261,-0.34961,0.49194,-0.81763;
18:56:04.271,-0.32666,0.51245,-0.80981;
18:56:04.281,-0.32813,0.49609,-0.82104;
18:56:04.291,-0.33374,0.47363,-0.82642;
18:56:04.301,-0.33936,0.45874,-0.82690;
18:56:04.311,-0.34985,0.45898,-0.83423;
18:56:04.321,-0.34595,0.48242,-0.83301;
18:56:04.331,-0.33228,0.49829,-0.82764;
18:56:04.341,-0.32813,0.49243,-0.81641;
18:56:04.351,-0.34131,0.47266,-0.81592;
18:56:04.361,-0.34619,0.46143,-0.82080;
18:56:04.371,-0.34570,0.46655,-0.82202;
18:56:04.381,-0.33765,0.47168,-0.82251;
18:56:04.391,-0.33032,0.48096,-0.82495;
18:56:04.401,-0.34082,0.48682,-0.82324;
18:56:04.411,-0.34155,0.47754,-0.81860;
18:56:04.421,-0.34131,0.46899,-0.81763;
18:56:04.431,-0.33813,0.45996,-0.81982;
18:56:04.441,-0.32935,0.46167,-0.82227;
18:56:04.451,-0.33643,0.47363,-0.82520;
18:56:04.461,-0.34326,0.48071,-0.82715;
18:56:04.471,-0.33765,0.48242,-0.82593;
18:56:04.481,-0.33276,0.47339,-0.82568;
18:56:04.491,-0.34058,0.45337,-0.82690;
18:56:04.501,-0.34277,0.42725,-0.83057;
18:56:04.511,-0.33276,0.43530,-0.82593;
18:56:04.521,-0.32568,0.46436,-0.82056;
18:56:04.531,-0.31738,0.47266,-0.82349;
18:56:04.541,-0.30151,0.47021,-0.83008;
18:56:04.551,-0.31787,0.46606,-0.83984;
18:56:04.561,-0.34131,0.45239,-0.83887;
18:56:04.571,-0.35156,0.43555,-0.83350;
18:56:04.581,-0.36304,0.43481,-0.82739;
18:56:04.591,-0.36914,0.44629,-0.82227;
18:56:04.601,-0.37671,0.46655,-0.82300;
18:56:04.611,-0.38452,0.47217,-0.82422;
18:56:04.621,-0.39575,0.45288,-0.82544;
18:56:04.631,-0.39624,0.44604,-0.82690;
18:56:04.641,-0.37769,0.44702,-0.81738;
18:56:04.651,-0.36572,0.44434,-0.81323;
18:56:04.661,-0.36987,0.45068,-0.83130;
18:56:04.671,-0.36548,0.44702,-0.84033;
18:56:04.681,-0.35059,0.44702,-0.83716;
18:56:04.691,-0.34570,0.45068,-0.83936;
18:56:04.701,-0.35425,0.45264,-0.84302;
18:56:04.711,-0.35229,0.45654,-0.84229;
18:56:04.721,-0.35425,0.45532,-0.84326;
18:56:04.731,-0.36133,0.45605,-0.84399;
18:56:04.741,-0.35034,0.46460,-0.82886;
18:56:04.751,-0.35156,0.46240,-0.82739;
18:56:04.761,-0.36572,0.44678,-0.82813;
18:56:04.771,-0.36450,0.46875,-0.82056;
18:56:04.781,-0.36255,0.46362,-0.82080;
18:56:04.791,-0.36230,0.45410,-0.82031;
18:56:04.801,-0.36279,0.45557,-0.82080;
18:56:04.811,-0.36011,0.46777,-0.82349;
18:56:04.821,-0.35132,0.47534,-0.82764;
18:56:04.831,-0.35547,0.46021,-0.82837;
18:56:04.841,-0.36108,0.45557,-0.82544;
18:56:04.851,-0.36084,0.46509,-0.82690;
18:56:04.861,-0.36572,0.46216,-0.82666;
18:56:04.871,-0.36914,0.45947,-0.83081;
18:56:04.881,-0.36499,0.46167,-0.82861;
18:56:04.891,-0.36206,0.46558,-0.82715;
18:56:04.901,-0.35767,0.47363,-0.83276;
18:56:04.911,-0.35596,0.47314,-0.83105;
18:56:04.921,-0.35791,0.46387,-0.82617;
18:56:04.931,-0.35742,0.45410,-0.82690;
18:56:04.941,-0.35767,0.44897,-0.82520;
18:56:04.951,-0.35840,0.45288,-0.82422;
18:56:04.961,-0.36743,0.46338,-0.83032;
18:56:04.971,-0.36914,0.46948,-0.83569;
18:56:04.981,-0.36230,0.47339,-0.83472;
18:56:04.991,-0.35791,0.47217,-0.82568;
18:56:05.001,-0.36206,0.46216,-0.81885;
18:56:05.011,-0.36450,0.45361,-0.82324;
18:56:05.021,-0.35889,0.45410,-0.82275;
18:56:05.031,-0.36035,0.47021,-0.82739;
18:56:05.041,-0.36035,0.47046,-0.83228;
18:56:05.051,-0.35571,0.46558,-0.82910;
18:56:05.061,-0.35425,0.46899,-0.82886;
18:56:05.071,-0.35889,0.46973,-0.82104;
18:56:05.081,-0.36304,0.46973,-0.81592;
18:56:05.091,-0.36230,0.46362,-0.81348;
18:56:05.101,-0.36475,0.46216,-0.82056;
18:56:05.111,-0.36987,0.46851,-0.82471;
18:56:05.121,-0.36743,0.47144,-0.82568;
18:56:05.131,-0.36450,0.46338,-0.82422;
18:56:05.141,-0.36523,0.45703,-0.81934;
18:56:05.151,-0.36548,0.45703,-0.82202;
18:56:05.161,-0.36084,0.46362,-0.82861;
18:56:05.171,-0.35327,0.47192,-0.83423;
18:56:05.181,-0.34766,0.47632,-0.83423;
18:56:05.191,-0.34888,0.47095,-0.83105;
18:56:05.201,-0.35840,0.46265,-0.82983;
18:56:05.211,-0.36133,0.45654,-0.82837;
18:56:05.221,-0.35620,0.45459,-0.82935;
18:56:05.231,-0.35840,0.46118,-0.82446;
18:56:05.241,-0.35962,0.46875,-0.81689;
18:56:05.251,-0.36572,0.47217,-0.82471;
18:56:05.261,-0.37329,0.46387,-0.82642;
18:56:05.271,-0.37158,0.45679,-0.82007;
18:56:05.281,-0.37012,0.46680,-0.81812;
18:56:05.291,-0.36792,0.47607,-0.81885;
18:56:05.301,-0.36426,0.47681,-0.82251;
18:56:05.311,-0.36182,0.46606,-0.82446;
18:56:05.321,-0.36230,0.45947,-0.83008;
18:56:05.331,-0.36206,0.46729,-0.83765;
18:56:05.341,-0.35547,0.47363,-0.83691;
18:56:05.351,-0.35059,0.47290,-0.83350;
18:56:05.361,-0.34766,0.47485,-0.83032;
18:56:05.371,-0.33765,0.47632,-0.83081;
18:56:05.381,-0.33618,0.47363,-0.83545;
18:56:05.391,-0.33838,0.47070,-0.84009;
18:56:05.401,-0.33765,0.46753,-0.84009;
18:56:05.411,-0.33862,0.47168,-0.83545;
18:56:05.421,-0.34277,0.46875,-0.83081;
18:56:05.431,-0.34546,0.46924,-0.82373;
18:56:05.441,-0.34814,0.47388,-0.82397;
18:56:05.451,-0.35156,0.47388,-0.82153;
18:56:05.461,-0.35962,0.46582,-0.81592;
18:56:05.471,-0.36670,0.47217,-0.81714;
18:56:05.481,-0.36719,0.46191,-0.81885;
18:56:05.491,-0.35913,0.47339,-0.83447;
18:56:05.501,-0.34741,0.46948,-0.83911;
18:56:05.511,-0.35449,0.45581,-0.83276;
18:56:05.521,-0.36499,0.47168,-0.84595;
18:56:05.531,-0.39185,0.49194,-0.86597;
18:56:05.541,-0.39087,0.50146,-0.86768;
18:56:05.551,-0.35864,0.47144,-0.84741;
18:56:05.561,-0.36133,0.44995,-0.82520;
18:56:05.571,-0.35962,0.46533,-0.83984;
18:56:05.581,-0.35400,0.47681,-0.86816;
18:56:05.591,-0.33960,0.49170,-0.86719;
18:56:05.601,-0.32861,0.49585,-0.85571;
18:56:05.611,-0.32935,0.48511,-0.86304;
18:56:05.621,-0.32666,0.46411,-0.86353;
18:56:05.631,-0.32690,0.43921,-0.85498;
18:56:05.641,-0.33423,0.43848,-0.83789;
18:56:05.651,-0.33960,0.46851,-0.83105;
18:56:05.661,-0.28955,0.46216,-0.82227;
18:56:05.671,-0.40967,0.54785,-0.82813;
18:56:05.681,-0.27441,0.35986,-0.85010;
18:56:05.691,-0.32544,0.46094,-0.75854;
18:56:05.701,-0.35376,0.56152,-0.76709;
18:56:05.711,-0.43579,0.70093,-0.83618;
18:56:05.721,-0.16187,0.46411,-0.82813;
18:56:05.731,-0.02759,0.07031,-0.72510;
18:56:05.741,-0.93115,0.79736,-0.75952;
18:56:05.751,-0.08545,0.37109,-0.73730;
18:56:05.761,-0.42627,0.23975,-0.69434;
18:56:05.771,-0.42358,0.40479,-0.71851;
18:56:05.781,-0.37769,0.44531,-0.77148;
18:56:05.791,-0.39990,0.49365,-0.80469;
18:56:05.801,-0.39624,0.50586,-0.78198;
18:56:05.811,-0.38965,0.53540,-0.76904;
18:56:05.821,-0.38696,0.51758,-0.77588;
18:56:05.831,-0.38843,0.50342,-0.79443;
18:56:05.841,-0.38892,0.48315,-0.78687;
18:56:05.851,-0.38916,0.46387,-0.76636;
18:56:05.861,-0.38770,0.45508,-0.76587;
18:56:05.871,-0.38940,0.47046,-0.77783;
18:56:05.881,-0.39038,0.49121,-0.78516;
18:56:05.891,-0.39282,0.50415,-0.78442;
18:56:05.901,-0.39233,0.50366,-0.77222;
18:56:05.911,-0.39429,0.50317,-0.76636;
18:56:05.921,-0.39844,0.49634,-0.76587;
18:56:05.931,-0.41504,0.48486,-0.76123;
18:56:05.941,-0.43701,0.48096,-0.76489;
18:56:05.951,-0.43945,0.48535,-0.76953;
18:56:05.961,-0.44165,0.48486,-0.77637;
18:56:05.971,-0.43579,0.47827,-0.77319;
18:56:05.981,-0.42603,0.47510,-0.77002;
18:56:05.991,-0.42065,0.47461,-0.77759;
18:56:06.001,-0.41211,0.47632,-0.78052;
18:56:06.011,-0.40210,0.48193,-0.77515;
18:56:06.021,-0.40015,0.48438,-0.77637;
18:56:06.031,-0.40405,0.48462,-0.78735;
18:56:06.041,-0.40601,0.48022,-0.78662;
18:56:06.051,-0.40967,0.47925,-0.77954;
18:56:06.061,-0.41260,0.47656,-0.77100;
18:56:06.071,-0.41333,0.47461,-0.76245;
18:56:06.081,-0.41528,0.47778,-0.75757;
18:56:06.091,-0.42261,0.47974,-0.76270;
18:56:06.101,-0.42041,0.48438,-0.76416;
18:56:06.111,-0.42163,0.48389,-0.75903;
18:56:06.121,-0.42798,0.47656,-0.76978;
18:56:06.131,-0.42407,0.47021,-0.76880;
18:56:06.141,-0.42627,0.46704,-0.75439;
18:56:06.151,-0.42993,0.47559,-0.75342;
18:56:06.161,-0.43750,0.48535,-0.79688;
18:56:06.171,-0.40942,0.47559,-0.81006;
18:56:06.181,-0.37231,0.48218,-0.81860;
18:56:06.191,-0.36816,0.49438,-0.82202;
18:56:06.201,-0.37183,0.48999,-0.83716;
18:56:06.211,-0.37427,0.48438,-0.83887;
18:56:06.221,-0.37354,0.47559,-0.83423;
18:56:06.231,-0.37329,0.47192,-0.82300;
18:56:06.241,-0.37207,0.48340,-0.81470;
18:56:06.251,-0.37695,0.50024,-0.80713;
18:56:06.261,-0.38574,0.50098,-0.81128;
18:56:06.271,-0.38794,0.49072,-0.81885;
18:56:06.281,-0.38965,0.48926,-0.81226;
18:56:06.291,-0.39355,0.48755,-0.80396;
18:56:06.301,-0.39551,0.48730,-0.80640;
18:56:06.311,-0.39478,0.49023,-0.80176;
18:56:06.321,-0.39282,0.49121,-0.79102;
18:56:06.331,-0.39600,0.49365,-0.77954;
18:56:06.341,-0.40308,0.49121,-0.78491;
18:56:06.351,-0.40820,0.48486,-0.79102;
18:56:06.361,-0.41577,0.47827,-0.77661;
18:56:06.371,-0.41919,0.48096,-0.77417;
18:56:06.381,-0.41797,0.48999,-0.76831;
18:56:06.391,-0.41919,0.49854,-0.75684;
18:56:06.401,-0.42285,0.50366,-0.75562;
18:56:06.411,-0.42163,0.50342,-0.76270;
18:56:06.421,-0.41602,0.49707,-0.76709;
18:56:06.431,-0.41479,0.48901,-0.77002;
18:56:06.441,-0.41675,0.48657,-0.76880;
18:56:06.451,-0.42139,0.48950,-0.76855;
18:56:06.461,-0.42603,0.49048,-0.76465;
18:56:06.471,-0.42993,0.48975,-0.76416;
18:56:06.481,-0.43481,0.49341,-0.76611;
18:56:06.491,-0.43433,0.49609,-0.76099;
18:56:06.501,-0.42969,0.49146,-0.75952;
18:56:06.511,-0.42603,0.48853,-0.76172;
18:56:06.521,-0.42432,0.49536,-0.76367;
18:56:06.531,-0.42334,0.50464,-0.75854;
18:56:06.541,-0.41919,0.50195,-0.76978;
18:56:06.551,-0.41577,0.49561,-0.78076;
18:56:06.561,-0.41138,0.49194,-0.77661;
18:56:06.571,-0.40894,0.48730,-0.77441;
18:56:06.581,-0.41260,0.48584,-0.77417;
18:56:06.591,-0.41748,0.48853,-0.77686;
18:56:06.601,-0.41724,0.49829,-0.77393;
18:56:06.611,-0.41431,0.50049,-0.77441;
18:56:06.621,-0.41479,0.50049,-0.77026;
18:56:06.631,-0.41602,0.49683,-0.77295;
18:56:06.641,-0.41479,0.49341,-0.78345;
18:56:06.651,-0.41284,0.49854,-0.77905;
18:56:06.661,-0.41602,0.49390,-0.77637;
18:56:06.671,-0.41748,0.48975,-0.78223;
18:56:06.681,-0.41431,0.49512,-0.78052;
18:56:06.691,-0.41138,0.50732,-0.76929;
18:56:06.701,-0.41040,0.50342,-0.76587;
18:56:06.711,-0.41382,0.49512,-0.76953;
18:56:06.721,-0.41748,0.49707,-0.76172;
18:56:06.731,-0.42554,0.49731,-0.75317;
18:56:06.741,-0.43530,0.49683,-0.75781;
18:56:06.751,-0.44019,0.49194,-0.76416;
18:56:06.761,-0.43750,0.49170,-0.76660;
18:56:06.771,-0.42773,0.49805,-0.75513;
18:56:06.781,-0.42798,0.50391,-0.74829;
18:56:06.791,-0.42896,0.49976,-0.75586;
18:56:06.801,-0.42847,0.49365,-0.76929;
18:56:06.811,-0.42383,0.49097,-0.77808;
18:56:06.821,-0.41699,0.49292,-0.77539;
18:56:06.831,-0.41431,0.50122,-0.76416;
18:56:06.841,-0.41504,0.50610,-0.75830;
18:56:06.851,-0.42017,0.50635,-0.76270;
18:56:06.861,-0.42236,0.49829,-0.76636;
18:56:06.871,-0.41675,0.49292,-0.77051;
18:56:06.881,-0.41357,0.49805,-0.77734;
18:56:06.891,-0.42017,0.49561,-0.77173;
18:56:06.901,-0.42432,0.49609,-0.77417;
18:56:06.911,-0.41724,0.49780,-0.77490;
18:56:06.921,-0.41626,0.49609,-0.77173;
18:56:06.931,-0.41602,0.49390,-0.77466;
18:56:06.941,-0.41431,0.49731,-0.77539;
18:56:06.951,-0.41577,0.49829,-0.76709;
18:56:06.961,-0.42114,0.49585,-0.76270;
18:56:06.971,-0.42847,0.49512,-0.76538;
18:56:06.981,-0.42871,0.49634,-0.76196;
18:56:06.991,-0.43237,0.49951,-0.75732;
18:56:07.001,-0.43457,0.50024,-0.75317;
18:56:07.011,-0.43579,0.49805,-0.75610;
18:56:07.021,-0.43457,0.49585,-0.76099;
18:56:07.031,-0.42993,0.49707,-0.76440;
18:56:07.041,-0.43091,0.50049,-0.76709;
18:56:07.051,-0.42505,0.49976,-0.76587;
18:56:07.061,-0.41919,0.49414,-0.76538;
18:56:07.071,-0.41968,0.49463,-0.76782;
18:56:07.081,-0.41943,0.49634,-0.77222;
18:56:07.091,-0.41724,0.49463,-0.77856;
18:56:07.101,-0.41577,0.49316,-0.77881;
18:56:07.111,-0.41724,0.49390,-0.77515;
18:56:07.121,-0.41602,0.49341,-0.78369;
18:56:07.131,-0.41455,0.49463,-0.78442;
18:56:07.141,-0.41138,0.49463,-0.77686;
18:56:07.151,-0.41553,0.49951,-0.76563;
18:56:07.161,-0.42139,0.50342,-0.76221;
18:56:07.171,-0.42725,0.49976,-0.76563;
18:56:07.181,-0.42993,0.49609,-0.76489;
18:56:07.191,-0.42676,0.49756,-0.76733;
18:56:07.201,-0.42578,0.50195,-0.75928;
18:56:07.211,-0.42407,0.49878,-0.75708;
18:56:07.221,-0.42212,0.49512,-0.76196;
18:56:07.231,-0.42236,0.49634,-0.76270;
18:56:07.241,-0.42358,0.49854,-0.76538;
18:56:07.251,-0.42261,0.49780,-0.76978;
18:56:07.261,-0.42114,0.49805,-0.76709;
18:56:07.271,-0.42090,0.49731,-0.76074;
18:56:07.281,-0.42627,0.49927,-0.75977;
18:56:07.291,-0.42969,0.49951,-0.76294;
18:56:07.301,-0.43066,0.49634,-0.76465;
18:56:07.311,-0.42798,0.49121,-0.76392;
18:56:07.321,-0.42578,0.48950,-0.77075;
18:56:07.331,-0.42334,0.49243,-0.77197;
18:56:07.341,-0.42139,0.50122,-0.76709;
18:56:07.351,-0.41528,0.50903,-0.76514;
18:56:07.361,-0.41455,0.50537,-0.76343;
18:56:07.371,-0.42090,0.49365,-0.77319;
18:56:07.381,-0.42334,0.48828,-0.78027;
18:56:07.391,-0.42090,0.49146,-0.77808;
18:56:07.401,-0.41797,0.49683,-0.77612;
18:56:07.411,-0.41699,0.50146,-0.77808;
18:56:07.421,-0.41577,0.49658,-0.77979;
18:56:07.431,-0.41650,0.49121,-0.78174;
18:56:07.441,-0.41504,0.49316,-0.77856;
18:56:07.451,-0.42041,0.49536,-0.77295;
18:56:07.461,-0.42358,0.49561,-0.77344;
18:56:07.471,-0.42310,0.49609,-0.76929;
18:56:07.481,-0.42358,0.50073,-0.76563;
18:56:07.491,-0.42261,0.50195,-0.76270;
18:56:07.501,-0.42505,0.49658,-0.76221;
18:56:07.511,-0.42651,0.49536,-0.76196;
18:56:07.521,-0.42944,0.49292,-0.76245;
18:56:07.531,-0.42993,0.49292,-0.76196;
18:56:07.541,-0.42822,0.49463,-0.76514;
18:56:07.551,-0.42456,0.49683,-0.76489;
18:56:07.561,-0.42432,0.50537,-0.74731;
18:56:07.571,-0.43555,0.49731,-0.74634;
18:56:07.581,-0.44019,0.49512,-0.75317;
18:56:07.591,-0.43042,0.49878,-0.76367;
18:56:07.601,-0.42700,0.50171,-0.76318;
18:56:07.611,-0.42407,0.50195,-0.76611;
18:56:07.621,-0.41895,0.49951,-0.76953;
18:56:07.631,-0.41797,0.49756,-0.77417;
18:56:07.641,-0.41553,0.49341,-0.77979;
18:56:07.651,-0.41675,0.48877,-0.78296;
18:56:07.661,-0.41577,0.48706,-0.78491;
18:56:07.671,-0.41650,0.48511,-0.79053;
18:56:07.681,-0.41235,0.49561,-0.78589;
18:56:07.691,-0.40552,0.51074,-0.77393;
18:56:07.701,-0.41284,0.50171,-0.77563;
18:56:07.711,-0.41626,0.48853,-0.77661;
18:56:07.721,-0.42139,0.49365,-0.77515;
18:56:07.731,-0.42261,0.49731,-0.76855;
18:56:07.741,-0.42554,0.49829,-0.76270;
18:56:07.751,-0.42969,0.49683,-0.76001;
18:56:07.761,-0.42822,0.49316,-0.76416;
18:56:07.771,-0.42847,0.49219,-0.76880;
18:56:07.781,-0.42529,0.49316,-0.76611;
18:56:07.791,-0.42407,0.49487,-0.77148;
18:56:07.801,-0.42383,0.49902,-0.77075;
18:56:07.811,-0.42114,0.50073,-0.76855;
18:56:07.821,-0.41772,0.50122,-0.76978;
18:56:07.831,-0.41870,0.49927,-0.77051;
18:56:07.841,-0.41870,0.49487,-0.77002;
18:56:07.851,-0.41870,0.49316,-0.77051;
18:56:07.861,-0.42212,0.49194,-0.77515;
18:56:07.871,-0.42358,0.49316,-0.77222;
18:56:07.881,-0.42480,0.49292,-0.77051;
18:56:07.891,-0.43311,0.48950,-0.76489;
18:56:07.901,-0.43091,0.49194,-0.76318;
18:56:07.911,-0.42432,0.51025,-0.75781;
18:56:07.921,-0.42188,0.50659,-0.76465;
18:56:07.931,-0.41821,0.49341,-0.77295;
18:56:07.941,-0.41626,0.49219,-0.77295;
18:56:07.951,-0.41650,0.49658,-0.77319;
18:56:07.961,-0.41162,0.49731,-0.77368;
18:56:07.971,-0.41357,0.49438,-0.77979;
18:56:07.981,-0.41431,0.48853,-0.78320;
18:56:07.991,-0.41431,0.48462,-0.78662;
18:56:08.001,-0.41577,0.48975,-0.78589;
18:56:08.011,-0.41260,0.49463,-0.78345;
18:56:08.021,-0.41260,0.50000,-0.78296;
18:56:08.031,-0.41479,0.50073,-0.77686;
18:56:08.041,-0.41699,0.49634,-0.77466;
18:56:08.051,-0.42065,0.49414,-0.76831;
18:56:08.061,-0.42334,0.49414,-0.76782;
18:56:08.071,-0.42554,0.49487,-0.76831;
18:56:08.081,-0.42749,0.49365,-0.76929;
18:56:08.091,-0.42456,0.49414,-0.76904;
18:56:08.101,-0.42627,0.49316,-0.76685;
18:56:08.111,-0.42480,0.49365,-0.76831;
18:56:08.121,-0.42407,0.49854,-0.76465;
18:56:08.131,-0.42334,0.49829,-0.76636;
18:56:08.141,-0.42139,0.49512,-0.76978;
18:56:08.151,-0.42505,0.49414,-0.76807;
18:56:08.161,-0.42603,0.49219,-0.77466;
18:56:08.171,-0.42310,0.49170,-0.77930;
18:56:08.181,-0.41895,0.48657,-0.77271;
18:56:08.191,-0.41284,0.49805,-0.77417;
18:56:08.201,-0.42212,0.49023,-0.76978;
18:56:08.211,-0.42090,0.49438,-0.77686;
18:56:08.221,-0.41919,0.49414,-0.78174;
18:56:08.231,-0.41919,0.49268,-0.78320;
18:56:08.241,-0.41479,0.48926,-0.78271;
18:56:08.251,-0.41235,0.49146,-0.77954;
18:56:08.261,-0.41699,0.49463,-0.77515;
18:56:08.271,-0.41772,0.49854,-0.77832;
18:56:08.281,-0.41577,0.49731,-0.77002;
18:56:08.291,-0.42114,0.49463,-0.76367;
18:56:08.301,-0.42163,0.49536,-0.76611;
18:56:08.311,-0.42456,0.49170,-0.76147;
18:56:08.321,-0.43164,0.48853,-0.76489;
18:56:08.331,-0.43286,0.49536,-0.76196;
18:56:08.341,-0.42773,0.50659,-0.75806;
18:56:08.351,-0.42578,0.50171,-0.76392;
18:56:08.361,-0.42480,0.49072,-0.76636;
18:56:08.371,-0.42163,0.48853,-0.77222;
18:56:08.381,-0.41968,0.49170,-0.77710;
18:56:08.391,-0.41479,0.49634,-0.77905;
18:56:08.401,-0.41113,0.49707,-0.78198;
18:56:08.411,-0.40918,0.49438,-0.78418;
18:56:08.421,-0.41284,0.48535,-0.78589;
18:56:08.431,-0.41479,0.48413,-0.78711;
18:56:08.441,-0.41699,0.49487,-0.78516;
18:56:08.451,-0.41602,0.49585,-0.78369;
18:56:08.461,-0.41162,0.49170,-0.77563;
18:56:08.471,-0.41431,0.49683,-0.77515;
18:56:08.481,-0.41357,0.49707,-0.77905;
18:56:08.491,-0.41284,0.49243,-0.77466;
18:56:08.501,-0.41992,0.49048,-0.77344;
18:56:08.511,-0.42505,0.48828,-0.77588;
18:56:08.521,-0.42651,0.48779,-0.77588;
18:56:08.531,-0.42505,0.49072,-0.77393;
18:56:08.541,-0.42236,0.49585,-0.76563;
18:56:08.551,-0.42480,0.49756,-0.76001;
18:56:08.561,-0.42651,0.49585,-0.76611;
18:56:08.571,-0.42480,0.49390,-0.76953;
18:56:08.581,-0.42090,0.49194,-0.77393;
18:56:08.591,-0.41895,0.49023,-0.77563;
18:56:08.601,-0.41821,0.49048,-0.77759;
18:56:08.611,-0.41333,0.48999,-0.78027;
18:56:08.621,-0.41382,0.49292,-0.77832;
18:56:08.631,-0.41382,0.49414,-0.77905;
18:56:08.641,-0.41040,0.49316,-0.77930;
18:56:08.651,-0.41260,0.49390,-0.78101;
18:56:08.661,-0.41626,0.49512,-0.77979;
18:56:08.671,-0.41553,0.49463,-0.77612;
18:56:08.681,-0.41626,0.49414,-0.77539;
18:56:08.691,-0.42090,0.49146,-0.76758;
18:56:08.701,-0.42505,0.48926,-0.77124;
18:56:08.711,-0.42212,0.49023,-0.77295;
18:56:08.721,-0.41992,0.49463,-0.77002;
18:56:08.731,-0.42041,0.49780,-0.77271;
18:56:08.741,-0.41724,0.49341,-0.77539;
18:56:08.751,-0.41528,0.49292,-0.77515;
18:56:08.761,-0.41577,0.49243,-0.77441;
18:56:08.771,-0.41772,0.48950,-0.77734;
18:56:08.781,-0.41870,0.49170,-0.77466;
18:56:08.791,-0.41846,0.49414,-0.77148;
18:56:08.801,-0.41846,0.49292,-0.77417;
18:56:08.811,-0.41895,0.49243,-0.77710;
18:56:08.821,-0.41919,0.49390,-0.77441;
18:56:08.831,-0.41968,0.49463,-0.77222;
18:56:08.841,-0.41943,0.49097,-0.77295;
18:56:08.851,-0.41724,0.49170,-0.77612;
18:56:08.861,-0.41479,0.49341,-0.77344;
18:56:08.871,-0.41797,0.49414,-0.77466;
18:56:08.881,-0.41797,0.48584,-0.77588;
18:56:08.891,-0.41577,0.49438,-0.77905;
18:56:08.901,-0.41675,0.48389,-0.77881;
18:56:08.911,-0.41626,0.49780,-0.77271;
18:56:08.921,-0.41724,0.48975,-0.78394;
18:56:08.931,-0.41553,0.49390,-0.77856;
18:56:08.941,-0.41260,0.49536,-0.78149;
18:56:08.951,-0.41162,0.49390,-0.78052;
18:56:08.961,-0.41162,0.49438,-0.77466;
18:56:08.971,-0.41089,0.49292,-0.77344;
18:56:08.981,-0.41577,0.49097,-0.77441;
18:56:08.991,-0.42017,0.48950,-0.77417;
18:56:09.001,-0.42334,0.48682,-0.77734;
18:56:09.011,-0.42065,0.49170,-0.77515;
18:56:09.021,-0.42285,0.49658,-0.76636;
18:56:09.031,-0.42407,0.49536,-0.77051;
18:56:09.041,-0.42139,0.49146,-0.77734;
18:56:09.051,-0.41870,0.49146,-0.77856;
18:56:09.061,-0.41309,0.49194,-0.78003;
18:56:09.071,-0.41113,0.49243,-0.77856;
18:56:09.081,-0.40845,0.49023,-0.78223;
18:56:09.091,-0.40625,0.48755,-0.78418;
18:56:09.101,-0.40405,0.49219,-0.78394;
18:56:09.111,-0.41943,0.49390,-0.77100;
18:56:09.121,-0.42627,0.49487,-0.77075;
18:56:09.131,-0.42529,0.49414,-0.76709;
18:56:09.141,-0.42261,0.49146,-0.76611;
18:56:09.151,-0.42725,0.49121,-0.76563;
18:56:09.161,-0.42773,0.48901,-0.76709;
18:56:09.171,-0.42505,0.48999,-0.77197;
18:56:09.181,-0.42334,0.49072,-0.77637;
18:56:09.191,-0.41748,0.49219,-0.77783;
18:56:09.201,-0.41260,0.49463,-0.78345;
18:56:09.211,-0.40869,0.49634,-0.78101;
18:56:09.221,-0.40503,0.49390,-0.78223;
18:56:09.231,-0.40527,0.49121,-0.78394;
18:56:09.241,-0.40601,0.48926,-0.78247;
18:56:09.251,-0.40649,0.49023,-0.78076;
18:56:09.261,-0.41138,0.49390,-0.77051;
18:56:09.271,-0.42212,0.49170,-0.77246;
18:56:09.281,-0.42676,0.48950,-0.77832;
18:56:09.291,-0.42554,0.49170,-0.77295;
18:56:09.301,-0.42725,0.49683,-0.76660;
18:56:09.311,-0.42432,0.49780,-0.76440;
18:56:09.321,-0.42114,0.49585,-0.76685;
18:56:09.331,-0.42188,0.49365,-0.77222;
18:56:09.341,-0.41748,0.48950,-0.77075;
18:56:09.351,-0.41870,0.48755,-0.77637;
18:56:09.361,-0.41675,0.48853,-0.77686;
18:56:09.371,-0.41650,0.49268,-0.77271;
18:56:09.381,-0.41748,0.49536,-0.77441;
18:56:09.391,-0.41504,0.49365,-0.77393;
18:56:09.401,-0.41699,0.49219,-0.77637;
18:56:09.411,-0.41675,0.49438,-0.77393;
18:56:09.421,-0.41748,0.49365,-0.77173;
18:56:09.431,-0.42017,0.49023,-0.77466;
18:56:09.441,-0.41797,0.48999,-0.77930;
18:56:09.451,-0.41650,0.48926,-0.77905;
18:56:09.461,-0.41846,0.49097,-0.77759;
18:56:09.471,-0.41528,0.49194,-0.78076;
18:56:09.481,-0.41284,0.49048,-0.78296;
18:56:09.491,-0.41113,0.48853,-0.78589;
18:56:09.501,-0.40747,0.49072,-0.78442;
18:56:09.511,-0.40771,0.49341,-0.78394;
18:56:09.521,-0.41187,0.48926,-0.78662;
18:56:09.531,-0.40942,0.49023,-0.78223;
18:56:09.541,-0.40894,0.49609,-0.77905;
18:56:09.551,-0.41602,0.48901,-0.77686;
18:56:09.561,-0.42114,0.49072,-0.77563;
18:56:09.571,-0.41943,0.49268,-0.77295;
18:56:09.581,-0.42041,0.49365,-0.76685;
18:56:09.591,-0.42090,0.49194,-0.77148;
18:56:09.601,-0.41846,0.49341,-0.77075;
18:56:09.611,-0.41650,0.49512,-0.76538;
18:56:09.621,-0.42017,0.49268,-0.76855;
18:56:09.631,-0.42041,0.48804,-0.77490;
18:56:09.641,-0.42114,0.48633,-0.77466;
18:56:09.651,-0.42017,0.48975,-0.77368;
18:56:09.661,-0.41626,0.49438,-0.77026;
18:56:09.671,-0.41284,0.49634,-0.77124;
18:56:09.681,-0.41211,0.49341,-0.77832;
18:56:09.691,-0.41479,0.49194,-0.78027;
18:56:09.701,-0.41333,0.49219,-0.77905;
18:56:09.711,-0.41406,0.49316,-0.78076;
18:56:09.721,-0.41357,0.49170,-0.78052;
18:56:09.731,-0.41577,0.48975,-0.78076;
18:56:09.741,-0.41626,0.48975,-0.77856;
18:56:09.751,-0.41528,0.48950,-0.77734;
18:56:09.761,-0.41235,0.48999,-0.78198;
18:56:09.771,-0.41016,0.48950,-0.78369;
18:56:09.781,-0.41016,0.49023,-0.78149;
18:56:09.791,-0.40991,0.49072,-0.77783;
18:56:09.801,-0.41235,0.48877,-0.78027;
18:56:09.811,-0.41553,0.48730,-0.77905;
18:56:09.821,-0.41943,0.48657,-0.78198;
18:56:09.831,-0.42017,0.48730,-0.78467;
18:56:09.841,-0.41479,0.49048,-0.78491;
18:56:09.851,-0.41260,0.49268,-0.78149;
18:56:09.861,-0.41113,0.49634,-0.77588;
18:56:09.871,-0.41138,0.49316,-0.77563;
18:56:09.881,-0.41602,0.48877,-0.77588;
18:56:09.891,-0.41528,0.48877,-0.77832;
18:56:09.901,-0.41577,0.49268,-0.77124;
18:56:09.911,-0.41797,0.49707,-0.77100;
18:56:09.921,-0.41968,0.49683,-0.76782;
18:56:09.931,-0.42041,0.49170,-0.77124;
18:56:09.941,-0.42358,0.49023,-0.77100;
18:56:09.951,-0.42310,0.49365,-0.76563;
18:56:09.961,-0.42236,0.49585,-0.76733;
18:56:09.971,-0.42285,0.49390,-0.76855;
18:56:09.981,-0.42065,0.49048,-0.77075;
18:56:09.991,-0.41846,0.49243,-0.76904;
18:56:10.001,-0.41699,0.49365,-0.76733;
18:56:10.011,-0.41748,0.49536,-0.76660;
18:56:10.021,-0.42090,0.49219,-0.77588;
18:56:10.031,-0.42065,0.48682,-0.78369;
18:56:10.041,-0.41406,0.48755,-0.78931;
18:56:10.051,-0.41040,0.49365,-0.78613;
18:56:10.061,-0.40625,0.49585,-0.78735;
18:56:10.071,-0.40186,0.49414,-0.79028;
18:56:10.081,-0.40454,0.49097,-0.78467;
18:56:10.091,-0.40625,0.49023,-0.78271;
18:56:10.101,-0.40674,0.49072,-0.78003;
18:56:10.111,-0.41333,0.49146,-0.77881;
18:56:10.121,-0.41919,0.49268,-0.77368;
18:56:10.131,-0.42310,0.48975,-0.77026;
18:56:10.141,-0.42969,0.48926,-0.77612;
18:56:10.151,-0.42529,0.48755,-0.77905;
18:56:10.161,-0.41699,0.49170,-0.77466;
18:56:10.171,-0.41382,0.49536,-0.77319;
18:56:10.181,-0.41455,0.49365,-0.77222;
18:56:10.191,-0.41699,0.48901,-0.77637;
18:56:10.201,-0.41699,0.48706,-0.77905;
18:56:10.211,-0.42041,0.49121,-0.77588;
18:56:10.221,-0.42310,0.48828,-0.77856;
18:56:10.231,-0.42017,0.48633,-0.77710;
18:56:10.241,-0.41333,0.50073,-0.78491;
18:56:10.251,-0.40991,0.48096,-0.78320;
18:56:10.261,-0.41016,0.49438,-0.79102;
18:56:10.271,-0.41187,0.49219,-0.78198;
18:56:10.281,-0.41724,0.48657,-0.78369;
18:56:10.291,-0.41821,0.49292,-0.78418;
18:56:10.301,-0.41797,0.49023,-0.78516;
18:56:10.311,-0.41797,0.48511,-0.78540;
18:56:10.321,-0.41431,0.48999,-0.77979;
18:56:10.331,-0.41284,0.49805,-0.77075;
18:56:10.341,-0.41870,0.49927,-0.76709;
18:56:10.351,-0.42480,0.49609,-0.76099;
18:56:10.361,-0.42773,0.49487,-0.75854;
18:56:10.371,-0.43262,0.49341,-0.76147;
18:56:10.381,-0.43457,0.49463,-0.75610;
18:56:10.391,-0.43457,0.49438,-0.76221;
18:56:10.401,-0.43042,0.49976,-0.75684;
18:56:10.411,-0.42578,0.50195,-0.75195;
18:56:10.421,-0.42163,0.49097,-0.77295;
18:56:10.431,-0.41138,0.48877,-0.77930;
18:56:10.441,-0.40796,0.49048,-0.78467;
18:56:10.451,-0.40576,0.49268,-0.78638;
18:56:10.461,-0.40405,0.49902,-0.77026;
18:56:10.471,-0.41553,0.49707,-0.77002;
18:56:10.481,-0.42603,0.48853,-0.78271;
18:56:10.491,-0.42480,0.48877,-0.78711;
18:56:10.501,-0.42188,0.50317,-0.77026;
18:56:10.511,-0.41870,0.50342,-0.76904;
18:56:10.521,-0.42041,0.48999,-0.77319;
18:56:10.531,-0.42407,0.48975,-0.76904;
18:56:10.541,-0.42480,0.49414,-0.77319;
18:56:10.551,-0.42529,0.49731,-0.76636;
18:56:10.561,-0.42871,0.49194,-0.75635;
18:56:10.571,-0.43628,0.48901,-0.75708;
18:56:10.581,-0.43921,0.49658,-0.75586;
18:56:10.591,-0.44409,0.49536,-0.75513;
18:56:10.601,-0.44824,0.49048,-0.75977;
18:56:10.611,-0.44409,0.48950,-0.75977;
18:56:10.621,-0.43604,0.49780,-0.75635;
18:56:10.631,-0.42578,0.50537,-0.75854;
18:56:10.641,-0.41943,0.49927,-0.76709;
18:56:10.651,-0.41235,0.49219,-0.77100;
18:56:10.661,-0.40796,0.49219,-0.76392;
18:56:10.671,-0.40869,0.49707,-0.74829;
18:56:10.681,-0.41113,0.50049,-0.75049;
18:56:10.691,-0.42017,0.49512,-0.76807;
18:56:10.701,-0.42407,0.48462,-0.77612;
18:56:10.711,-0.42114,0.48706,-0.77856;
18:56:10.721,-0.41772,0.50610,-0.76831;
18:56:10.731,-0.41553,0.51587,-0.75854;
18:56:10.741,-0.41626,0.50635,-0.76050;
18:56:10.751,-0.41260,0.49487,-0.75684;
18:56:10.761,-0.41357,0.48682,-0.76294;
18:56:10.771,-0.41772,0.47900,-0.78418;
18:56:10.781,-0.41089,0.48340,-0.79419;
18:56:10.791,-0.40723,0.49658,-0.78394;
18:56:10.801,-0.40430,0.50098,-0.77686;
18:56:10.811,-0.40039,0.49438,-0.78223;
18:56:10.821,-0.40112,0.48706,-0.79370;
18:56:10.831,-0.39819,0.48633,-0.79590;
18:56:10.841,-0.39575,0.49048,-0.78784;
18:56:10.851,-0.40234,0.49023,-0.78174;
18:56:10.861,-0.41113,0.48755,-0.78320;
18:56:10.871,-0.41284,0.48438,-0.78589;
18:56:10.881,-0.41284,0.48486,-0.78540;
18:56:10.891,-0.41479,0.48340,-0.79346;
18:56:10.901,-0.41284,0.47095,-0.79370;
18:56:10.911,-0.40503,0.47437,-0.78687;
18:56:10.921,-0.40039,0.49023,-0.78271;
18:56:10.931,-0.40063,0.49780,-0.78174;
18:56:10.941,-0.40405,0.48950,-0.80273;
18:56:10.951,-0.40161,0.46338,-0.81299;
18:56:10.961,-0.38062,0.49854,-0.81274;
18:56:10.971,-0.36768,0.54785,-0.79224;
18:56:10.981,-0.37622,0.52881,-0.79932;
18:56:10.991,-0.38281,0.49683,-0.81323;
18:56:11.001,-0.38574,0.47705,-0.81836;
18:56:11.011,-0.37988,0.48022,-0.82373;
18:56:11.021,-0.36108,0.49951,-0.82593;
18:56:11.031,-0.34302,0.52563,-0.80762;
18:56:11.041,-0.35156,0.52808,-0.78052;
18:56:11.051,-0.36279,0.51221,-0.76807;
18:56:11.061,-0.36401,0.51587,-0.75488;
18:56:11.071,-0.37622,0.51025,-0.74731;
18:56:11.081,-0.40283,0.48633,-0.76318;
18:56:11.091,-0.43018,0.47974,-0.76465;
18:56:11.101,-0.44556,0.48950,-0.75366;
18:56:11.111,-0.44995,0.50977,-0.72827;
18:56:11.121,-0.45093,0.53076,-0.70874;
18:56:11.131,-0.45874,0.52710,-0.71411;
18:56:11.141,-0.46558,0.49927,-0.72583;
18:56:11.151,-0.45947,0.48022,-0.73242;
18:56:11.161,-0.44458,0.49194,-0.73511;
18:56:11.171,-0.43335,0.50806,-0.75171;
18:56:11.181,-0.42236,0.50244,-0.77539;
18:56:11.191,-0.40796,0.49097,-0.78955;
18:56:11.201,-0.39355,0.49170,-0.78711;
18:56:11.211,-0.38916,0.50342,-0.78833;
18:56:11.221,-0.39160,0.49951,-0.80249;
18:56:11.231,-0.38867,0.49072,-0.82056;
18:56:11.241,-0.38403,0.49683,-0.82617;
18:56:11.251,-0.38184,0.49976,-0.81958;
18:56:11.261,-0.38306,0.49194,-0.82178;
18:56:11.271,-0.37622,0.48535,-0.82080;
18:56:11.281,-0.36768,0.49365,-0.81421;
18:56:11.291,-0.36816,0.50586,-0.80420;
18:56:11.301,-0.37329,0.51465,-0.80005;
18:56:11.311,-0.38989,0.51001,-0.80664;
18:56:11.321,-0.40723,0.49829,-0.80347;
18:56:11.331,-0.41162,0.49927,-0.79004;
18:56:11.341,-0.42065,0.50952,-0.77295;
18:56:11.351,-0.44092,0.51563,-0.75537;
18:56:11.361,-0.45508,0.51074,-0.74805;
18:56:11.371,-0.46362,0.50659,-0.74731;
18:56:11.381,-0.47192,0.50342,-0.74878;
18:56:11.391,-0.46680,0.51270,-0.74854;
18:56:11.401,-0.44971,0.53052,-0.75122;
18:56:11.411,-0.44849,0.53003,-0.76904;
18:56:11.421,-0.45142,0.50415,-0.77783;
18:56:11.431,-0.43994,0.49487,-0.79639;
18:56:11.441,-0.42505,0.50806,-0.81274;
18:56:11.451,-0.39429,0.57959,-0.79590;
18:56:11.461,-0.38403,0.69458,-0.80859;
18:56:11.471,-0.44385,0.74170,-0.71362;
18:56:11.481,-0.46411,0.75366,-0.68506;
18:56:11.491,-0.46997,0.69702,-0.61523;
18:56:11.501,-0.47778,0.73511,-0.53906;
18:56:11.511,-0.43896,0.80542,-0.54858;
18:56:11.521,-0.46997,0.80542,-0.50000;
18:56:11.531,-0.46899,0.90405,-0.47070;
18:56:11.541,-0.52051,0.99097,-0.58032;
18:56:11.551,-0.51123,1.08350,-0.62280;
18:56:11.561,-0.49805,1.10742,-0.62378;
18:56:11.571,-0.50928,1.02100,-0.61157;
18:56:11.581,-0.47754,0.90234,-0.51440;
18:56:11.591,-0.47119,0.82422,-0.42358;
18:56:11.601,-0.46802,0.79346,-0.38428;
18:56:11.611,-0.45044,0.82593,-0.41284;
18:56:11.621,-0.44385,0.90869,-0.38574;
18:56:11.631,-0.43896,0.86328,-0.39771;
18:56:11.641,-0.42017,0.77271,-0.38086;
18:56:11.651,-0.43652,0.74512,-0.39063;
18:56:11.661,-0.45093,0.70386,-0.38672;
18:56:11.671,-0.47852,0.65869,-0.37402;
18:56:11.681,-0.49829,0.62939,-0.38281;
18:56:11.691,-0.50146,0.60400,-0.38770;
18:56:11.701,-0.50928,0.57031,-0.38306;
18:56:11.711,-0.51440,0.54565,-0.38574;
18:56:11.721,-0.51733,0.53784,-0.39209;
18:56:11.731,-0.52686,0.53784,-0.40381;
18:56:11.741,-0.53320,0.53857,-0.42651;
18:56:11.751,-0.52539,0.53638,-0.45508;
18:56:11.761,-0.51904,0.54077,-0.47241;
18:56:11.771,-0.51807,0.54224,-0.47681;
18:56:11.781,-0.51709,0.54004,-0.47656;
18:56:11.791,-0.51929,0.54614,-0.48413;
18:56:11.801,-0.50830,0.57324,-0.49219;
18:56:11.811,-0.48096,0.61304,-0.49365;
18:56:11.821,-0.44946,0.63794,-0.48364;
18:56:11.831,-0.42773,0.63940,-0.48389;
18:56:11.841,-0.42944,0.63794,-0.49536;
18:56:11.851,-0.42896,0.66113,-0.49219;
18:56:11.861,-0.41602,0.70215,-0.48120;
18:56:11.871,-0.40845,0.73901,-0.46875;
18:56:11.881,-0.39014,0.75391,-0.46021;
18:56:11.891,-0.37109,0.75342,-0.46167;
18:56:11.901,-0.36646,0.76294,-0.46802;
18:56:11.911,-0.34985,0.78979,-0.47192;
18:56:11.921,-0.33960,0.82275,-0.47046;
18:56:11.931,-0.34692,0.84131,-0.46777;
18:56:11.941,-0.35376,0.84839,-0.47412;
18:56:11.951,-0.35205,0.85156,-0.48486;
18:56:11.961,-0.33960,0.86304,-0.49194;
18:56:11.971,-0.38110,0.88110,-0.51660;
18:56:11.981,-0.37183,0.86450,-0.50488;
18:56:11.991,-0.37939,0.86938,-0.50513;
18:56:12.001,-0.37891,0.87183,-0.50244;
18:56:12.011,-0.38696,0.86621,-0.49072;
18:56:12.021,-0.39551,0.84814,-0.48169;
18:56:12.031,-0.39526,0.83154,-0.47827;
18:56:12.041,-0.39355,0.82666,-0.47778;
18:56:12.051,-0.40015,0.82373,-0.47339;
18:56:12.061,-0.40186,0.82007,-0.46387;
18:56:12.071,-0.40039,0.81763,-0.45630;
18:56:12.081,-0.40991,0.81323,-0.44946;
18:56:12.091,-0.41382,0.80737,-0.44849;
18:56:12.101,-0.40576,0.80029,-0.44604;
18:56:12.111,-0.40820,0.79858,-0.43677;
18:56:12.121,-0.42456,0.79785,-0.42676;
18:56:12.131,-0.42944,0.79004,-0.42407;
18:56:12.141,-0.41992,0.79150,-0.42676;
18:56:12.151,-0.42065,0.80811,-0.41870;
18:56:12.161,-0.42529,0.81543,-0.40820;
18:56:12.171,-0.42236,0.81470,-0.41162;
18:56:12.181,-0.42456,0.81958,-0.39795;
18:56:12.191,-0.44458,0.80835,-0.39282;
18:56:12.201,-0.43945,0.81494,-0.37402;
18:56:12.211,-0.44385,0.80688,-0.37183;
18:56:12.221,-0.45044,0.80371,-0.36279;
18:56:12.231,-0.46655,0.79565,-0.36255;
18:56:12.241,-0.48242,0.79370,-0.36743;
18:56:12.251,-0.48877,0.79932,-0.36426;
18:56:12.261,-0.49072,0.80103,-0.36255;
18:56:12.271,-0.50171,0.81714,-0.35327;
18:56:12.281,-0.51099,1.06958,-0.39771;
18:56:12.291,-0.50830,1.36646,-0.45972;
18:56:12.301,-0.53027,1.27246,-0.41650;
18:56:12.311,-0.55884,0.91748,-0.28149;
18:56:12.321,-0.55396,0.60840,-0.21802;
18:56:12.331,-0.55005,0.47681,-0.24097;
18:56:12.341,-0.56641,0.52393,-0.28540;
18:56:12.351,-0.57495,0.68115,-0.34937;
18:56:12.361,-0.54712,0.84253,-0.40039;
18:56:12.371,-0.51367,0.87939,-0.35254;
18:56:12.381,-0.51172,0.78003,-0.31152;
18:56:12.391,-0.50146,0.74170,-0.30493;
18:56:12.401,-0.49048,0.75220,-0.32837;
18:56:12.411,-0.48242,0.78174,-0.35352;
18:56:12.421,-0.48071,0.81641,-0.36401;
18:56:12.431,-0.48096,0.84009,-0.36426;
18:56:12.441,-0.48657,0.84692,-0.35352;
18:56:12.451,-0.49097,0.83032,-0.34033;
18:56:12.461,-0.48950,0.80371,-0.33936;
18:56:12.471,-0.48340,0.78931,-0.34570;
18:56:12.481,-0.47656,0.79004,-0.35059;
18:56:12.491,-0.47754,0.80151,-0.35522;
18:56:12.501,-0.48315,0.81201,-0.35229;
18:56:12.511,-0.49219,0.82202,-0.35156;
18:56:12.521,-0.49536,0.82520,-0.34961;
18:56:12.531,-0.49463,0.82959,-0.34204;
18:56:12.541,-0.49609,0.81812,-0.33569;
18:56:12.551,-0.50293,0.80151,-0.33911;
18:56:12.561,-0.51074,0.79517,-0.34888;
18:56:12.571,-0.51587,0.79443,-0.36011;
18:56:12.581,-0.51660,0.80225,-0.36694;
18:56:12.591,-0.51685,0.80518,-0.36792;
18:56:12.601,-0.51440,0.80615,-0.36694;
18:56:12.611,-0.51270,0.80200,-0.36743;
18:56:12.621,-0.51196,0.79810,-0.36914;
18:56:12.631,-0.51001,0.79468,-0.36768;
18:56:12.641,-0.50659,0.79565,-0.36646;
18:56:12.651,-0.50342,0.79248,-0.36768;
18:56:12.661,-0.50464,0.79297,-0.36548;
18:56:12.671,-0.50464,0.79517,-0.36743;
18:56:12.681,-0.50195,0.80225,-0.37134;
18:56:12.691,-0.49951,0.81104,-0.37207;
18:56:12.701,-0.50073,0.80835,-0.36987;
18:56:12.711,-0.50269,0.79980,-0.35913;
18:56:12.721,-0.50488,0.79517,-0.35669;
18:56:12.731,-0.51074,0.79199,-0.35522;
18:56:12.741,-0.51880,0.79004,-0.35181;
18:56:12.751,-0.51733,0.79858,-0.35791;
18:56:12.761,-0.50977,0.80713,-0.36035;
18:56:12.771,-0.50952,0.81152,-0.35571;
18:56:12.781,-0.51099,0.80762,-0.35767;
18:56:12.791,-0.51074,0.80664,-0.36206;
18:56:12.801,-0.51294,0.80737,-0.36450;
18:56:12.811,-0.50928,0.80420,-0.36377;
18:56:12.821,-0.50439,0.80273,-0.36328;
18:56:12.831,-0.50342,0.79834,-0.36206;
18:56:12.841,-0.49951,0.79785,-0.35791;
18:56:12.851,-0.49658,0.80420,-0.35767;
18:56:12.861,-0.49707,0.80933,-0.35718;
18:56:12.871,-0.49487,0.79541,-0.37158;
18:56:12.881,-0.50146,0.79419,-0.37207;
18:56:12.891,-0.50342,0.80713,-0.38013;
18:56:12.901,-0.49805,0.80151,-0.37451;
18:56:12.911,-0.49170,0.80664,-0.37524;
18:56:12.921,-0.49268,0.80933,-0.37451;
18:56:12.931,-0.49829,0.80054,-0.37280;
18:56:12.941,-0.50244,0.79224,-0.37134;
18:56:12.951,-0.50342,0.79224,-0.37646;
18:56:12.961,-0.50098,0.79517,-0.37524;
18:56:12.971,-0.49756,0.80225,-0.37524;
18:56:12.981,-0.49292,0.81030,-0.37354;
18:56:12.991,-0.49292,0.80664,-0.37036;
18:56:13.001,-0.49854,0.80029,-0.36499;
18:56:13.011,-0.50342,0.79663,-0.36377;
18:56:13.021,-0.50757,0.79614,-0.36646;
18:56:13.031,-0.50415,0.80786,-0.36377;
18:56:13.041,-0.50024,0.81641,-0.36206;
18:56:13.051,-0.49683,0.81714,-0.35645;
18:56:13.061,-0.49561,0.80981,-0.35596;
18:56:13.071,-0.49634,0.80273,-0.36157;
18:56:13.081,-0.49683,0.80249,-0.36499;
18:56:13.091,-0.49561,0.80762,-0.36914;
18:56:13.101,-0.49341,0.80933,-0.37231;
18:56:13.111,-0.48730,0.80371,-0.37329;
18:56:13.121,-0.47925,0.80005,-0.37378;
18:56:13.131,-0.47900,0.79883,-0.37598;
18:56:13.141,-0.48926,0.79053,-0.37915;
18:56:13.151,-0.49854,0.78711,-0.38721;
18:56:13.161,-0.49609,0.79102,-0.39160;
18:56:13.171,-0.49780,0.79590,-0.38599;
18:56:13.181,-0.49829,0.80151,-0.37671;
18:56:13.191,-0.49951,0.80322,-0.37134;
18:56:13.201,-0.50269,0.80347,-0.37280;
18:56:13.211,-0.50146,0.80029,-0.37036;
18:56:13.221,-0.50098,0.79907,-0.36841;
18:56:13.231,-0.50220,0.80322,-0.37012;
18:56:13.241,-0.50513,0.80469,-0.36792;
18:56:13.251,-0.50586,0.80640,-0.36304;
18:56:13.261,-0.50488,0.80908,-0.36401;
18:56:13.271,-0.49927,0.81152,-0.36450;
18:56:13.281,-0.49268,0.80859,-0.36353;
18:56:13.291,-0.49438,0.80225,-0.36670;
18:56:13.301,-0.49658,0.80029,-0.37134;
18:56:13.311,-0.49561,0.80884,-0.37036;
18:56:13.321,-0.49121,0.81152,-0.36621;
18:56:13.331,-0.48511,0.80737,-0.36157;
18:56:13.341,-0.48389,0.80322,-0.35889;
18:56:13.351,-0.49146,0.79492,-0.36401;
18:56:13.361,-0.49683,0.79712,-0.36743;
18:56:13.371,-0.48999,0.80688,-0.36865;
18:56:13.381,-0.48730,0.81274,-0.35938;
18:56:13.391,-0.49243,0.81055,-0.34839;
18:56:13.401,-0.49805,0.80713,-0.35010;
18:56:13.411,-0.50098,0.79810,-0.35742;
18:56:13.421,-0.50293,0.79663,-0.36670;
18:56:13.431,-0.50073,0.80371,-0.36816;
18:56:13.441,-0.49561,0.81128,-0.36426;
18:56:13.451,-0.48877,0.82300,-0.36108;
18:56:13.461,-0.48779,0.81885,-0.35986;
18:56:13.471,-0.49292,0.80762,-0.35864;
18:56:13.481,-0.49683,0.79614,-0.36523;
18:56:13.491,-0.50269,0.78955,-0.36719;
18:56:13.501,-0.50098,0.79272,-0.36377;
18:56:13.511,-0.49414,0.79907,-0.36108;
18:56:13.521,-0.49268,0.80371,-0.35474;
18:56:13.531,-0.49414,0.80688,-0.35278;
18:56:13.541,-0.49194,0.81519,-0.35767;
18:56:13.551,-0.49438,0.82251,-0.35376;
18:56:13.561,-0.50293,0.81763,-0.34497;
18:56:13.571,-0.50952,0.79980,-0.36572;
18:56:13.581,-0.50488,0.80298,-0.38525;
18:56:13.591,-0.50635,0.78882,-0.39111;
18:56:13.601,-0.50171,0.77124,-0.41260;
18:56:13.611,-0.49463,0.77979,-0.42017;
18:56:13.621,-0.48975,0.78516,-0.42139;
18:56:13.631,-0.48730,0.78955,-0.42261;
18:56:13.641,-0.48633,0.78320,-0.42310;
18:56:13.651,-0.48657,0.77563,-0.42261;
18:56:13.661,-0.49609,0.77197,-0.42554;
18:56:13.671,-0.49585,0.77637,-0.42847;
18:56:13.681,-0.49048,0.78149,-0.43286;
18:56:13.691,-0.48071,0.78149,-0.42920;
18:56:13.701,-0.47412,0.78198,-0.42090;
18:56:13.711,-0.48096,0.78589,-0.41235;
18:56:13.721,-0.48535,0.78809,-0.41113;
18:56:13.731,-0.48535,0.78613,-0.41724;
18:56:13.741,-0.48511,0.78857,-0.41870;
18:56:13.751,-0.48389,0.79590,-0.41187;
18:56:13.761,-0.48633,0.79639,-0.40674;
18:56:13.771,-0.49194,0.79028,-0.40503;
18:56:13.781,-0.49268,0.78491,-0.40942;
18:56:13.791,-0.49512,0.78345,-0.41284;
18:56:13.801,-0.49487,0.78223,-0.41309;
18:56:13.811,-0.49268,0.78125,-0.41919;
18:56:13.821,-0.48950,0.78149,-0.41602;
18:56:13.831,-0.48975,0.77661,-0.41870;
18:56:13.841,-0.49048,0.77539,-0.42212;
18:56:13.851,-0.49365,0.77856,-0.42383;
18:56:13.861,-0.50195,0.77588,-0.42773;
18:56:13.871,-0.50342,0.77515,-0.42456;
18:56:13.881,-0.50464,0.77686,-0.42627;
18:56:13.891,-0.50513,0.77417,-0.42554;
18:56:13.901,-0.50439,0.77808,-0.42432;
18:56:13.911,-0.50366,0.77979,-0.42212;
18:56:13.921,-0.49707,0.78491,-0.41528;
18:56:13.931,-0.49048,0.78613,-0.41406;
18:56:13.941,-0.48730,0.78589,-0.40967;
18:56:13.951,-0.48804,0.78711,-0.40723;
18:56:13.961,-0.49463,0.78442,-0.40649;
18:56:13.971,-0.49878,0.78296,-0.40796;
18:56:13.981,-0.49951,0.78394,-0.41455;
18:56:13.991,-0.49854,0.78149,-0.41943;
18:56:14.001,-0.49731,0.77930,-0.41650;
18:56:14.011,-0.49829,0.78491,-0.41821;
18:56:14.021,-0.49878,0.78662,-0.42139;
18:56:14.031,-0.49731,0.78320,-0.42139;
18:56:14.041,-0.50049,0.77295,-0.41821;
18:56:14.051,-0.50366,0.76831,-0.41797;
18:56:14.061,-0.50122,0.76831,-0.41943;
18:56:14.071,-0.49341,0.77734,-0.42554;
18:56:14.081,-0.48657,0.78516,-0.43115;
18:56:14.091,-0.48535,0.78467,-0.42358;
18:56:14.101,-0.48145,0.78101,-0.41895;
18:56:14.111,-0.47925,0.78223,-0.41602;
18:56:14.121,-0.48657,0.78247,-0.41528;
18:56:14.131,-0.48755,0.77979,-0.41846;
18:56:14.141,-0.49023,0.78296,-0.42114;
18:56:14.151,-0.49561,0.78296,-0.41431;
18:56:14.161,-0.49585,0.78003,-0.41064;
18:56:14.171,-0.49731,0.78247,-0.40991;
18:56:14.181,-0.49438,0.79199,-0.41162;
18:56:14.191,-0.49658,0.79517,-0.40674;
18:56:14.201,-0.49829,0.79077,-0.40186;
18:56:14.211,-0.49756,0.78052,-0.40161;
18:56:14.221,-0.49927,0.77783,-0.40356;
18:56:14.231,-0.49609,0.78247,-0.40796;
18:56:14.241,-0.49365,0.78540,-0.40747;
18:56:14.251,-0.48950,0.78906,-0.41211;
18:56:14.261,-0.48511,0.79004,-0.41138;
18:56:14.271,-0.48560,0.78442,-0.40576;
18:56:14.281,-0.48120,0.79077,-0.41333;
18:56:14.291,-0.49683,0.78003,-0.40796;
18:56:14.301,-0.50464,0.77930,-0.40845;
18:56:14.311,-0.50635,0.78955,-0.40430;
18:56:14.321,-0.50708,0.78247,-0.40210;
18:56:14.331,-0.49951,0.78320,-0.40527;
18:56:14.341,-0.49634,0.78442,-0.41113;
18:56:14.351,-0.49854,0.78247,-0.40674;
18:56:14.361,-0.50000,0.78369,-0.40503;
18:56:14.371,-0.49512,0.78906,-0.40796;
18:56:14.381,-0.48828,0.79199,-0.40796;
18:56:14.391,-0.49023,0.78711,-0.40430;
18:56:14.401,-0.49219,0.78296,-0.40430;
18:56:14.411,-0.48779,0.78687,-0.41089;
18:56:14.421,-0.47949,0.78735,-0.40942;
18:56:14.431,-0.48340,0.78345,-0.40503;
18:56:14.441,-0.48608,0.78760,-0.41016;
18:56:14.451,-0.48413,0.79175,-0.41284;
18:56:14.461,-0.48633,0.79004,-0.41284;
18:56:14.471,-0.49243,0.78320,-0.40942;
18:56:14.481,-0.49707,0.78271,-0.40796;
18:56:14.491,-0.49951,0.78662,-0.41357;
18:56:14.501,-0.49854,0.78735,-0.40771;
18:56:14.511,-0.49194,0.79126,-0.40649;
18:56:14.521,-0.48755,0.79321,-0.41211;
18:56:14.531,-0.48535,0.78589,-0.40796;
18:56:14.541,-0.49219,0.77979,-0.40576;
18:56:14.551,-0.49780,0.78027,-0.41431;
18:56:14.561,-0.49487,0.78394,-0.41919;
18:56:14.571,-0.49292,0.78662,-0.41943;
18:56:14.581,-0.48926,0.78003,-0.41528;
18:56:14.591,-0.48438,0.78076,-0.41284;
18:56:14.601,-0.48315,0.78491,-0.41455;
18:56:14.611,-0.48315,0.78296,-0.41479;
18:56:14.621,-0.48120,0.78223,-0.41602;
18:56:14.631,-0.48657,0.78076,-0.41528;
18:56:14.641,-0.49512,0.77661,-0.41089;
18:56:14.651,-0.49878,0.77637,-0.41333;
18:56:14.661,-0.50317,0.77930,-0.42114;
18:56:14.671,-0.50488,0.78149,-0.42334;
18:56:14.681,-0.50684,0.77930,-0.42871;
18:56:14.691,-0.50781,0.77197,-0.42920;
18:56:14.701,-0.50806,0.77002,-0.42944;
18:56:14.711,-0.50464,0.77295,-0.43408;
18:56:14.721,-0.50146,0.77637,-0.42749;
18:56:14.731,-0.49414,0.77783,-0.41919;
18:56:14.741,-0.49170,0.77637,-0.41821;
18:56:14.751,-0.48657,0.77661,-0.41821;
18:56:14.761,-0.47461,0.78467,-0.41846;
18:56:14.771,-0.47339,0.78931,-0.41870;
18:56:14.781,-0.47852,0.78516,-0.41333;
18:56:14.791,-0.48071,0.78540,-0.41406;
18:56:14.801,-0.47925,0.78809,-0.41821;
18:56:14.811,-0.48511,0.78491,-0.41504;
18:56:14.821,-0.48608,0.77954,-0.41650;
18:56:14.831,-0.48535,0.78345,-0.42285;
18:56:14.841,-0.49048,0.78149,-0.42261;
18:56:14.851,-0.49146,0.77368,-0.42261;
18:56:14.861,-0.49707,0.77734,-0.42188;
18:56:14.871,-0.50342,0.78174,-0.42139;
18:56:14.881,-0.50854,0.77637,-0.41895;
18:56:14.891,-0.50977,0.77173,-0.42090;
18:56:14.901,-0.51147,0.77051,-0.42358;
18:56:14.911,-0.51953,0.77100,-0.42163;
18:56:14.921,-0.52466,0.76807,-0.42212;
18:56:14.931,-0.53467,0.76294,-0.41797;
18:56:14.941,-0.55200,0.76025,-0.41724;
18:56:14.951,-0.56812,0.76343,-0.41040;
18:56:14.961,-0.62012,0.77417,-0.42065;
18:56:14.971,-0.70483,0.75073,-0.39111;
18:56:14.981,-0.78955,0.81323,-0.44873;
18:56:14.991,-0.70972,0.98071,-0.47803;
18:56:15.001,-0.71655,0.93433,-0.24072;
18:56:15.011,-0.67383,0.57690,0.45825;
18:56:15.021,-0.80566,0.46167,0.56519;
18:56:15.031,-0.97388,0.74731,-0.19043;
18:56:15.041,-0.78027,1.19238,-0.67114;
18:56:15.051,-0.56299,1.53442,-0.54980;
18:56:15.061,-0.64551,1.28101,-0.15332;
18:56:15.071,-0.80420,0.61353,0.00806;
18:56:15.081,-0.79224,0.16016,-0.02979;
18:56:15.091,-0.74683,0.14380,-0.11108;
18:56:15.101,-0.75269,0.37378,-0.17725;
18:56:15.111,-0.71802,0.70459,-0.22729;
18:56:15.121,-0.64990,0.93555,-0.27295;
18:56:15.131,-0.56470,0.60352,-0.25684;
18:56:15.141,-0.52441,0.50171,-0.22632;
18:56:15.151,-0.51733,0.48242,-0.25659;
18:56:15.161,-0.50488,0.49390,-0.30322;
18:56:15.171,-0.45557,0.52295,-0.29932;
18:56:15.181,-0.43115,0.51685,-0.29150;
18:56:15.191,-0.41919,0.50000,-0.26050;
18:56:15.201,-0.39722,0.47705,-0.18066;
18:56:15.211,-0.38672,0.41895,-0.09595;
18:56:15.221,-0.38281,0.34985,-0.04297;
18:56:15.231,-0.38647,0.28638,-0.10010;
18:56:15.241,-0.36597,0.31836,-0.19873;
18:56:15.251,-0.31494,0.47461,-0.22021;
18:56:15.261,-0.30249,0.56445,-0.20190;
18:56:15.271,-0.29883,0.58398,-0.20679;
18:56:15.281,-0.29199,0.56177,-0.20142;
18:56:15.291,-0.42383,0.64478,-0.01221;
18:56:15.301,-0.58960,4.40601,0.50806;
18:56:15.311,-0.50659,-0.93555,1.12085;
18:56:15.321,-0.35181,-1.85181,0.00879;
18:56:15.331,-0.77051,-0.85352,-0.17896;
18:56:15.341,-0.94263,1.52710,0.16870;
18:56:15.351,-0.95825,1.98291,0.44385;
18:56:15.361,-0.90161,0.90454,0.44141;
18:56:15.371,-0.79175,0.07202,0.20044;
18:56:15.381,-0.81738,0.48267,0.09912;
18:56:15.391,-0.96167,0.86548,0.01465;
18:56:15.401,-0.95215,0.37817,0.00610;
18:56:15.411,-0.99243,0.46191,0.07959;
18:56:15.421,-1.01636,0.57837,0.10620;
18:56:15.431,-0.95313,0.62744,0.15674;
18:56:15.441,-0.87402,0.66528,0.23267;
18:56:15.451,-0.82056,0.63452,0.32813;
18:56:15.461,-0.81128,0.62476,0.40503;
18:56:15.471,-0.81348,0.65845,0.40723;
18:56:15.481,-0.75659,0.66089,0.38428;
18:56:15.491,-0.71704,0.62793,0.40137;
18:56:15.501,-0.75928,0.63379,0.40161;
18:56:15.511,-0.80786,0.59985,0.40039;
18:56:15.521,-0.87158,0.58081,0.39160;
18:56:15.531,-0.90674,0.61865,0.35742;
18:56:15.541,-0.85156,0.62451,0.35156;
18:56:15.551,-0.79175,0.61328,0.31128;
18:56:15.561,-0.75488,0.62646,0.26685;
18:56:15.571,-0.73438,0.67700,0.24878;
18:56:15.581,-0.73975,0.68164,0.22461;
18:56:15.591,-0.73730,0.66528,0.22925;
18:56:15.601,-0.81934,0.56934,0.12964;
18:56:15.611,-0.85767,0.56055,0.05957;
18:56:15.621,-0.72778,0.63013,0.03101;
18:56:15.631,-0.78394,0.45923,-0.04785;
18:56:15.641,-0.88159,0.36182,-0.07080;
18:56:15.651,-0.96826,0.28931,-0.12524;
18:56:15.661,-1.00342,0.25195,-0.13843;
18:56:15.671,-0.98462,0.27173,-0.13501;
18:56:15.681,-0.95459,0.29077,-0.14648;
18:56:15.691,-0.87988,0.35840,-0.10156;
18:56:15.701,-0.84326,0.41382,-0.06812;
18:56:15.711,-0.85547,0.44531,-0.07764;
18:56:15.721,-0.78564,0.56934,-0.13525;
18:56:15.731,-0.77539,0.69214,-0.24170;
18:56:15.741,-1.44312,-0.99658,-0.25269;
18:56:15.751,-1.44702,-1.25195,0.01758;
18:56:15.761,-1.06104,-0.39795,0.25293;
18:56:15.771,-0.96582,0.21118,0.10156;
18:56:15.781,-0.84009,0.22168,0.01025;
18:56:15.791,-0.79297,0.03784,0.06592;
18:56:15.801,-0.70190,-0.26050,0.69580;
18:56:15.811,-1.14380,-0.10767,-0.08496;
18:56:15.821,-1.21899,0.10059,0.03345;
18:56:15.831,-0.95825,-0.13916,0.00220;
18:56:15.841,-1.05835,0.02856,-0.13818;
18:56:15.851,-0.97778,0.08228,-0.19531;
18:56:15.861,-0.88428,-0.00342,0.26343;
18:56:15.871,-0.99268,0.14087,0.76196;
18:56:15.881,-1.07153,0.03101,0.29443;
18:56:15.891,-0.98462,0.12769,0.44092;
18:56:15.901,-0.99243,0.05371,0.58740;
18:56:15.911,-0.69678,-0.17432,1.34570;
18:56:15.921,-0.66626,-0.28516,1.73145;
18:56:15.931,-0.97388,-0.18726,0.82739;
18:56:15.941,-0.78711,-0.09399,0.59985;
18:56:15.951,-0.89697,0.15332,0.19873;
18:56:15.961,-0.98560,0.30249,-0.70703;
18:56:15.971,-1.01074,0.01685,0.19727;
18:56:15.981,-0.99121,-0.01758,0.36377;
18:56:15.991,-0.97900,-0.12402,0.26514;
18:56:16.001,-1.00708,-0.12061,0.08594;
18:56:16.011,-1.01929,-0.00269,0.04980;
18:56:16.021,-1.02930,0.01636,0.11084;
18:56:16.031,-1.04199,-0.11963,0.14795;
18:56:16.041,-1.04150,-0.23145,0.16211;
18:56:16.051,-0.96875,-0.25000,0.14453;
18:56:16.061,-0.91113,-0.30249,0.11670;
18:56:16.071,-0.98242,-0.27124,0.06567;
18:56:16.081,-1.01514,-0.12939,0.05664;
18:56:16.091,-1.00464,-0.14502,0.07275;
18:56:16.101,-1.01099,-0.23047,0.08960;
18:56:16.111,-0.99048,-0.21216,0.12354;
18:56:16.121,-1.00098,-0.19312,0.14844;
18:56:16.131,-0.99048,-0.28296,0.05591;
18:56:16.141,-1.11011,-0.27246,-0.01099;
18:56:16.151,-1.28198,-0.20898,-0.07959;
18:56:16.161,-1.57031,-0.20654,-0.09741;
18:56:16.171,-1.75171,-0.36377,0.24219;
18:56:16.181,-1.56226,-0.48706,0.26563;
18:56:16.191,-1.19971,-0.45996,0.09741;
18:56:16.201,-0.84302,-0.33105,0.07739;
18:56:16.211,-0.55273,0.21802,-0.10303;
18:56:16.221,-0.55078,1.16602,-0.30005;
18:56:16.231,-0.96582,0.25488,0.01514;
18:56:16.241,-0.94824,0.40649,-0.08716;
18:56:16.251,-0.93140,0.33325,-0.27148;
18:56:16.261,-0.98364,0.12549,-0.23853;
18:56:16.271,-1.04077,0.01123,-0.36792;
18:56:16.281,-1.01929,-0.05273,-0.39282;
18:56:16.291,-1.04980,-0.14111,-0.34058;
18:56:16.301,-1.06714,-0.22339,-0.20898;
18:56:16.311,-1.10645,-0.31909,-0.11011;
18:56:16.321,-1.09424,-0.44775,-0.00757;
18:56:16.331,-1.09790,-0.45117,0.07373;
18:56:16.341,-1.10669,-0.30396,0.10718;
18:56:16.351,-1.06274,-0.32397,0.09766;
18:56:16.361,-0.99902,-0.56128,0.12720;
18:56:16.371,-1.05151,-0.60278,0.23096;
18:56:16.381,-1.07495,-0.41919,0.28613;
18:56:16.391,-1.02832,-0.38818,0.27637;
18:56:16.401,-1.02002,-0.44043,0.28906;
18:56:16.411,-1.01611,-0.34131,0.26855;
18:56:16.421,-1.00586,-0.25977,0.17969;
18:56:16.431,-0.96362,-0.32349,0.10742;
18:56:16.441,-0.90991,-0.37891,0.06714;
18:56:16.451,-0.84351,-0.43750,0.05054;
18:56:16.461,-0.74512,-0.62280,0.10229;
18:56:16.471,-0.73242,-0.74902,0.12085;
18:56:16.481,-0.81689,-0.64404,0.14233;
18:56:16.491,-0.87109,-0.44897,0.15356;
18:56:16.501,-0.80713,-0.42871,0.08350;
18:56:16.511,-0.75488,-0.50415,0.03833;
18:56:16.521,-0.75488,-0.45996,0.02393;
18:56:16.531,-0.69434,-0.38770,-0.04565;
18:56:16.541,-0.79443,-0.25366,0.02808;
18:56:16.551,-1.24072,1.47925,0.74194;
18:56:16.561,-2.58398,0.80347,-0.06372;
18:56:16.571,-1.62500,-1.14063,0.09229;
18:56:16.581,-0.62964,-1.21777,0.21216;
18:56:16.591,-0.80664,-0.22949,0.04004;
18:56:16.601,-0.91895,0.52637,-0.06421;
18:56:16.611,-0.67114,0.18970,-0.07690;
18:56:16.621,-0.92285,0.11768,-0.00073;
18:56:16.631,-1.00806,0.13281,0.06348;
18:56:16.641,-1.03247,0.14038,0.05664;
18:56:16.651,-1.07422,0.18481,0.09424;
18:56:16.661,-1.00732,0.14844,0.07568;
18:56:16.671,-0.96802,0.14209,0.03906;
18:56:16.681,-0.91504,0.21753,0.04004;
18:56:16.691,-0.90820,0.24023,0.00757;
18:56:16.701,-0.94775,0.12134,-0.02075;
18:56:16.711,-1.07056,-0.04541,-0.05225;
18:56:16.721,-1.20728,-0.16821,-0.17896;
18:56:16.731,-1.19727,-0.23291,-0.33179;
18:56:16.741,-0.98120,-0.02710,-0.33569;
18:56:16.751,-0.90308,0.25488,-0.23340;
18:56:16.761,-0.98608,0.25000,-0.11768;
18:56:16.771,-1.03540,0.01440,-0.02271;
18:56:16.781,-1.01636,-0.29004,0.03979;
18:56:16.791,-0.99683,0.02271,-0.06470;
18:56:16.801,-1.01465,-0.04126,-0.02002;
18:56:16.811,-1.00415,-0.04199,-0.03833;
18:56:16.821,-1.00073,-0.01343,-0.06152;
18:56:16.831,-1.01245,-0.02368,-0.06079;
18:56:16.841,-1.00708,-0.04712,-0.06665;
18:56:16.851,-0.97437,-0.09326,-0.06274;
18:56:16.861,-0.95337,-0.15649,-0.08276;
18:56:16.871,-0.93701,-0.16016,-0.14478;
18:56:16.881,-0.94019,-0.11841,-0.19873;
18:56:16.891,-0.94922,-0.08765,-0.20679;
18:56:16.901,-0.94531,-0.10254,-0.18262;
18:56:16.911,-0.95190,-0.12549,-0.18286;
18:56:16.921,-0.95532,-0.10962,-0.18799;
18:56:16.931,-0.96436,-0.09131,-0.16553;
18:56:16.941,-0.99243,-0.07495,-0.14453;
18:56:16.951,-1.00415,-0.05469,-0.14478;
18:56:16.961,-0.99609,-0.04272,-0.13062;
18:56:16.971,-0.99121,-0.04883,-0.10425;
18:56:16.981,-0.98462,-0.08008,-0.11621;
18:56:16.991,-0.97290,-0.12158,-0.12573;
18:56:17.001,-0.98218,-0.11646,-0.12109;
18:56:17.011,-1.01294,-0.04468,-0.14868;
18:56:17.021,-1.02393,0.02271,-0.19849;
18:56:17.031,-1.01025,-0.01221,-0.21753;
18:56:17.041,-0.99194,-0.10791,-0.15381;
18:56:17.051,-0.99414,-0.12354,-0.08594;
18:56:17.061,-1.01318,-0.11157,-0.07813;
18:56:17.071,-1.00854,-0.11987,-0.05933;
18:56:17.081,-0.99292,-0.12085,-0.03027;
18:56:17.091,-1.00537,-0.13184,-0.03589;
18:56:17.101,-1.00635,-0.14307,-0.06470;
18:56:17.111,-0.98999,-0.13770,-0.08594;
18:56:17.121,-0.98584,-0.11328,-0.07983;
18:56:17.131,-0.99902,-0.11914,-0.04688;
18:56:17.141,-1.02222,-0.16357,-0.03320;
18:56:17.151,-0.98999,-0.16309,-0.11890;
18:56:17.161,-0.94531,-0.18359,-0.13770;
18:56:17.171,-0.92285,-0.20654,-0.14209;
18:56:17.181,-0.94702,-0.20483,-0.11865;
18:56:17.191,-0.98535,-0.16528,-0.08569;
18:56:17.201,-1.01147,-0.13599,-0.07690;
18:56:17.211,-1.01758,-0.14868,-0.06323;
18:56:17.221,-0.99365,-0.17822,-0.04395;
18:56:17.231,-0.96265,-0.21533,-0.05688;
18:56:17.241,-0.95435,-0.22241,-0.07983;
18:56:17.251,-0.97803,-0.19434,-0.08032;
18:56:17.261,-0.99634,-0.18237,-0.06958;
18:56:17.271,-0.99463,-0.20215,-0.08936;
18:56:17.281,-0.95752,-0.21118,-0.11157;
18:56:17.291,-0.94043,-0.20508,-0.13013;
18:56:17.301,-0.95068,-0.19897,-0.11108;
18:56:17.311,-0.98706,-0.20532,-0.07373;
18:56:17.321,-1.02539,-0.20483,-0.06519;
18:56:17.331,-1.03296,-0.19238,-0.07568;
18:56:17.341,-1.01733,-0.19141,-0.09082;
18:56:17.351,-0.96289,-0.22314,-0.10034;
18:56:17.361,-0.90063,-0.26343,-0.11230;
18:56:17.371,-0.90601,-0.28931,-0.10742;
18:56:17.381,-0.96655,-0.26147,-0.09351;
18:56:17.391,-1.00952,-0.22485,-0.09692;
18:56:17.401,-1.00708,-0.21509,-0.10474;
18:56:17.411,-0.97437,-0.22339,-0.10693;
18:56:17.421,-0.92651,-0.25562,-0.12207;
18:56:17.431,-0.89624,-0.30884,-0.11743;
18:56:17.441,-0.89844,-0.32446,-0.08447;
18:56:17.451,-0.92456,-0.29248,-0.08569;
18:56:17.461,-0.95288,-0.27271,-0.11548;
18:56:17.471,-0.96997,-0.26270,-0.13574;
18:56:17.481,-0.94409,-0.27026,-0.14551;
18:56:17.491,-0.94067,-0.26733,-0.16479;
18:56:17.501,-0.94165,-0.29565,-0.13696;
18:56:17.511,-0.92212,-0.31763,-0.13086;
18:56:17.521,-0.91968,-0.30859,-0.15820;
18:56:17.531,-0.94727,-0.30371,-0.16602;
18:56:17.541,-0.98438,-0.29321,-0.15015;
18:56:17.551,-1.00757,-0.27271,-0.11816;
18:56:17.561,-0.99170,-0.26855,-0.09619;
18:56:17.571,-0.94116,-0.31128,-0.08862;
18:56:17.581,-0.90576,-0.36646,-0.05884;
18:56:17.591,-0.89648,-0.38843,-0.04053;
18:56:17.601,-0.90649,-0.38110,-0.05200;
18:56:17.611,-0.91528,-0.35938,-0.06592;
18:56:17.621,-0.92554,-0.34058,-0.08398;
18:56:17.631,-0.95776,-0.32959,-0.10352;
18:56:17.641,-0.98389,-0.31616,-0.11670;
18:56:17.651,-1.00122,-0.31030,-0.10986;
18:56:17.661,-0.99731,-0.32764,-0.11182;
18:56:17.671,-0.97437,-0.35083,-0.12866;
18:56:17.681,-0.95093,-0.33984,-0.14136;
18:56:17.691,-0.91309,-0.33350,-0.13940;
18:56:17.701,-0.88159,-0.35474,-0.13013;
18:56:17.711,-0.87158,-0.37158,-0.11694;
18:56:17.721,-0.89038,-0.38403,-0.10010;
18:56:17.731,-0.94531,-0.38208,-0.09326;
18:56:17.741,-0.98950,-0.34961,-0.09888;
18:56:17.751,-0.99731,-0.33691,-0.11963;
18:56:17.761,-0.98584,-0.34351,-0.13330;
18:56:17.771,-0.95361,-0.34521,-0.12231;
18:56:17.781,-0.90918,-0.35498,-0.11206;
18:56:17.791,-0.89404,-0.36621,-0.12549;
18:56:17.801,-0.91162,-0.37231,-0.13354;
18:56:17.811,-0.92944,-0.37158,-0.12402;
18:56:17.821,-0.93311,-0.38086,-0.10107;
18:56:17.831,-0.89282,-0.39746,-0.10962;
18:56:17.841,-0.89648,-0.40625,-0.10913;
18:56:17.851,-0.89746,-0.38696,-0.11841;
18:56:17.861,-0.90137,-0.36963,-0.12891;
18:56:17.871,-0.92676,-0.35645,-0.14478;
18:56:17.881,-0.93994,-0.34473,-0.15039;
18:56:17.891,-0.93188,-0.35522,-0.14233;
18:56:17.901,-0.92773,-0.37524,-0.14575;
18:56:17.911,-0.91748,-0.38208,-0.14819;
18:56:17.921,-0.90527,-0.39893,-0.14038;
18:56:17.931,-0.91064,-0.39966,-0.12988;
18:56:17.941,-0.92480,-0.38940,-0.13208;
18:56:17.951,-0.91528,-0.39893,-0.14771;
18:56:17.961,-0.90527,-0.40015,-0.18530;
18:56:17.971,-0.90308,-0.38013,-0.22949;
18:56:17.981,-0.89771,-0.34839,-0.24902;
18:56:17.991,-0.88354,-0.33008,-0.23413;
18:56:18.001,-0.85449,-0.35010,-0.20044;
18:56:18.011,-0.84375,-0.38745,-0.16089;
18:56:18.021,-0.83521,-0.41211,-0.11182;
18:56:18.031,-0.83887,-0.42236,-0.07886;
18:56:18.041,-0.87744,-0.40552,-0.07739;
18:56:18.051,-0.89453,-0.37402,-0.10449;
18:56:18.061,-0.87134,-0.35254,-0.14453;
18:56:18.071,-0.84839,-0.35571,-0.18335;
18:56:18.081,-0.84717,-0.34619,-0.21191;
18:56:18.091,-0.86011,-0.33325,-0.22144;
18:56:18.101,-0.90552,-0.34814,-0.20239;
18:56:18.111,-0.96777,-0.34448,-0.15454;
18:56:18.121,-1.01392,-0.33984,-0.09229;
18:56:18.131,-1.03564,-0.34302,-0.05249;
18:56:18.141,-1.02734,-0.32983,-0.07007;
18:56:18.151,-0.99390,-0.32935,-0.12158;
18:56:18.161,-0.97021,-0.33618,-0.15723;
18:56:18.171,-0.96460,-0.32373,-0.16772;
18:56:18.181,-0.96948,-0.32471,-0.14966;
18:56:18.191,-0.94067,-0.34033,-0.13013;
18:56:18.201,-0.91089,-0.35938,-0.13159;
18:56:18.211,-0.95215,-0.33569,-0.13306;
18:56:18.221,-0.92725,-0.33765,-0.15820;
18:56:18.231,-0.95508,-0.34888,-0.12866;
18:56:18.241,-0.94653,-0.33130,-0.11182;
18:56:18.251,-0.90698,-0.33691,-0.09473;
18:56:18.261,-0.86157,-0.36206,-0.08716;
18:56:18.271,-0.84058,-0.38306,-0.08862;
18:56:18.281,-0.85645,-0.37207,-0.08691;
18:56:18.291,-0.88574,-0.35132,-0.09155;
18:56:18.301,-0.91870,-0.33374,-0.11963;
18:56:18.311,-0.93555,-0.32080,-0.16089;
18:56:18.321,-0.92749,-0.32666,-0.19263;
18:56:18.331,-0.94775,-0.33252,-0.21680;
18:56:18.341,-0.97607,-0.30542,-0.23145;
18:56:18.351,-0.97729,-0.27783,-0.19800;
18:56:18.361,-0.95557,-0.30005,-0.11548;
18:56:18.371,-0.92847,-0.33643,-0.06665;
18:56:18.381,-0.90552,-0.34497,-0.08032;
18:56:18.391,-0.89087,-0.33008,-0.12524;
18:56:18.401,-0.89185,-0.31738,-0.15796;
18:56:18.411,-0.89990,-0.31689,-0.15210;
18:56:18.421,-0.92334,-0.31372,-0.12231;
18:56:18.431,-0.95630,-0.30762,-0.09229;
18:56:18.441,-0.98071,-0.29175,-0.08936;
18:56:18.451,-0.98804,-0.29517,-0.11548;
18:56:18.461,-0.98901,-0.29980,-0.14941;
18:56:18.471,-0.97314,-0.29419,-0.15479;
18:56:18.481,-0.93921,-0.30322,-0.12329;
18:56:18.491,-0.91064,-0.30469,-0.09961;
18:56:18.501,-0.90137,-0.31299,-0.08350;
18:56:18.511,-0.90674,-0.32227,-0.06641;
18:56:18.521,-0.92188,-0.31445,-0.06689;
18:56:18.531,-0.94312,-0.31372,-0.07861;
18:56:18.541,-0.95801,-0.31494,-0.08301;
18:56:18.551,-0.97339,-0.30884,-0.08179;
18:56:18.561,-0.98071,-0.30103,-0.08374;
18:56:18.571,-0.98096,-0.28638,-0.08545;
18:56:18.581,-0.97461,-0.26880,-0.09277;
18:56:18.591,-0.94751,-0.26416,-0.09253;
18:56:18.601,-0.91113,-0.29004,-0.07080;
18:56:18.611,-0.89941,-0.30078,-0.03198;
18:56:18.621,-0.91797,-0.29102,-0.01001;
18:56:18.631,-0.93848,-0.28394,-0.01953;
18:56:18.641,-0.95557,-0.26880,-0.04077;
18:56:18.651,-0.97046,-0.25562,-0.06689;
18:56:18.661,-0.98657,-0.25098,-0.09863;
18:56:18.671,-0.99438,-0.23828,-0.09448;
18:56:18.681,-0.98657,-0.24194,-0.07227;
18:56:18.691,-0.97144,-0.24487,-0.06421;
18:56:18.701,-0.96362,-0.24390,-0.07129;
18:56:18.711,-0.97754,-0.24585,-0.07446;
18:56:18.721,-0.99683,-0.23682,-0.08618;
18:56:18.731,-1.00879,-0.22021,-0.10107;
18:56:18.741,-1.01025,-0.21680,-0.11597;
18:56:18.751,-0.99780,-0.21167,-0.11816;
18:56:18.761,-0.96069,-0.22778,-0.10425;
18:56:18.771,-0.92993,-0.24634,-0.10083;
18:56:18.781,-0.90186,-0.24414,-0.11792;
18:56:18.791,-0.88379,-0.24023,-0.14404;
18:56:18.801,-0.88184,-0.24170,-0.16602;
18:56:18.811,-0.88770,-0.23975,-0.18506;
18:56:18.821,-0.88477,-0.23608,-0.18408;
18:56:18.831,-0.87939,-0.23486,-0.16992;
18:56:18.841,-0.88110,-0.22729,-0.17065;
18:56:18.851,-0.88672,-0.21460,-0.20313;
18:56:18.861,-0.91089,-0.19482,-0.25806;
18:56:18.871,-0.93799,-0.15381,-0.32300;
18:56:18.881,-0.96216,-0.12598,-0.32739;
18:56:18.891,-1.06201,-0.09766,-0.19385;
18:56:18.901,-1.06592,-0.16431,-0.09326;
18:56:18.911,-1.01074,-0.15894,-0.08008;
18:56:18.921,-1.07617,-0.15503,-0.01538;
18:56:18.931,-1.11572,-0.09009,-0.12329;
18:56:18.941,-1.09619,-0.02979,-0.18335;
18:56:18.951,-1.08496,0.01172,-0.17285;
18:56:18.961,-1.10205,-0.02075,-0.11597;
18:56:18.971,-1.11206,-0.04175,-0.03760;
18:56:18.981,-1.13843,-0.06323,-0.01025;
18:56:18.991,-1.14478,-0.09058,-0.04858;
18:56:19.001,-1.13135,-0.12622,-0.11182;
18:56:19.011,-1.12964,-0.18677,-0.17236;
18:56:19.021,-1.16455,-0.28540,-0.18237;
18:56:19.031,-1.19849,-0.40601,-0.18774;
18:56:19.041,-1.11914,-0.59229,-0.31250;
18:56:19.051,-1.03931,-1.07813,-0.60498;
18:56:19.061,-1.08374,-1.80298,-0.98413;
18:56:19.071,-1.02344,-2.38647,-0.98975;
18:56:19.081,-0.95532,-2.60962,-0.57861;
18:56:19.091,-0.89063,-2.38989,-0.15771;
18:56:19.101,-0.80200,-1.94775,0.01172;
18:56:19.111,-0.84399,-1.62964,-0.16699;
18:56:19.121,-0.73901,-1.32129,-0.31445;
18:56:19.131,-0.65869,-0.81274,-0.36768;
18:56:19.141,-0.66333,-0.21021,-0.43555;
18:56:19.151,-0.58252,0.28564,-0.41504;
18:56:19.161,-0.50415,0.62988,-0.33081;
18:56:19.171,-0.40796,0.95386,-0.22534;
18:56:19.181,-0.28369,1.35229,-0.06543;
18:56:19.191,0.25513,0.93604,0.48413;
18:56:19.201,-0.88037,1.50122,-0.56030;
18:56:19.211,-1.70288,2.63208,-1.23462;
18:56:19.221,-2.53906,-0.09473,-0.87646;
18:56:19.231,-3.08496,-3.15552,-0.85181;
18:56:19.241,-2.84619,-0.96509,-0.58862;
18:56:19.251,-2.75049,1.08008,-0.74878;
18:56:19.261,-2.25854,0.12354,-0.36426;
18:56:19.271,-2.02075,-0.90747,0.12451;
18:56:19.281,-1.53003,-0.94727,0.37402;
18:56:19.291,-1.14673,-0.75391,0.55151;
18:56:19.301,-0.67920,-0.67358,0.51929;
18:56:19.311,-0.33911,-0.70801,0.48193;
18:56:19.321,-0.08105,-0.83984,0.39258;
18:56:19.331,0.10425,-0.77759,0.23706;
18:56:19.341,0.21533,-0.64966,0.05225;
18:56:19.351,0.16821,-0.53101,-0.09033;
18:56:19.361,-0.01147,-0.59033,-0.17017;
18:56:19.371,-0.23706,-0.63232,-0.22607;
18:56:19.381,-0.46753,-0.55078,-0.22900;
18:56:19.391,-0.73364,-0.54248,-0.17383;
18:56:19.401,-1.03638,-0.58691,-0.15405;
18:56:19.411,-1.44165,-0.54761,-0.15283;
18:56:19.421,-1.42310,-0.51538,-0.13574;
18:56:19.431,-1.34473,-0.51782,-0.12476;
18:56:19.441,-1.19043,-0.56763,-0.09546;
18:56:19.451,-1.00488,-0.63452,-0.04199;
18:56:19.461,-0.80249,-0.65869,-0.01147;
18:56:19.471,-0.63550,-0.64600,-0.03442;
18:56:19.481,-0.52466,-0.60205,-0.08984;
18:56:19.491,-0.46167,-0.57617,-0.14453;
18:56:19.501,-0.45825,-0.59277,-0.17627;
18:56:19.511,-0.49512,-0.60938,-0.18457;
18:56:19.521,-0.58252,-0.59741,-0.19531;
18:56:19.531,-0.68311,-0.58740,-0.20337;
18:56:19.541,-0.78296,-0.57959,-0.21069;
18:56:19.551,-0.92017,-0.60034,-0.22339;
18:56:19.561,-0.99609,-0.60449,-0.20508;
18:56:19.571,-0.81567,-0.59521,-0.22314;
18:56:19.581,-0.69849,-0.61548,-0.19849;
18:56:19.591,-0.66040,-0.61865,-0.20654;
18:56:19.601,-0.64136,-0.61938,-0.24243;
18:56:19.611,-0.64307,-0.59277,-0.28198;
18:56:19.621,-0.65430,-0.57324,-0.28613;
18:56:19.631,-0.68970,-0.58081,-0.25269;
18:56:19.641,-0.72534,-0.60596,-0.20850;
18:56:19.651,-0.75195,-0.62598,-0.15356;
18:56:19.661,-0.78418,-0.64697,-0.09473;
18:56:19.671,-0.84448,-0.66455,-0.07617;
18:56:19.681,-0.83569,-0.63672,-0.21680;
18:56:19.691,-0.79517,-0.61230,-0.23535;
18:56:19.701,-0.75708,-0.59790,-0.23218;
18:56:19.711,-0.70337,-0.59839,-0.20581;
18:56:19.721,-0.67358,-0.61035,-0.15283;
18:56:19.731,-0.67749,-0.62451,-0.11255;
18:56:19.741,-0.69409,-0.63110,-0.11304;
18:56:19.751,-0.71729,-0.63257,-0.13794;
18:56:19.761,-0.74438,-0.61133,-0.17480;
18:56:19.771,-0.77051,-0.58447,-0.20703;
18:56:19.781,-0.79614,-0.59741,-0.22803;
18:56:19.791,-0.80566,-0.60498,-0.23462;
18:56:19.801,-0.81006,-0.59424,-0.22314;
18:56:19.811,-0.81128,-0.60181,-0.19312;
18:56:19.821,-0.78149,-0.62476,-0.17017;
18:56:19.831,-0.75977,-0.62964,-0.17358;
18:56:19.841,-0.74585,-0.61719,-0.20142;
18:56:19.851,-0.72192,-0.60059,-0.24854;
18:56:19.861,-0.69629,-0.58301,-0.29443;
18:56:19.871,-0.67847,-0.56689,-0.32861;
18:56:19.881,-0.66992,-0.56128,-0.34497;
18:56:19.891,-0.67749,-0.56616,-0.34717;
18:56:19.901,-0.69458,-0.57104,-0.33789;
18:56:19.911,-0.71289,-0.58789,-0.32178;
18:56:19.921,-0.73169,-0.58691,-0.28955;
18:56:19.931,-0.75171,-0.58984,-0.24854;
18:56:19.941,-0.75195,-0.60742,-0.24902;
18:56:19.951,-0.74316,-0.59180,-0.27124;
18:56:19.961,-0.73560,-0.57617,-0.29517;
18:56:19.971,-0.72778,-0.57593,-0.29199;
18:56:19.981,-0.73364,-0.58179,-0.25806;
18:56:19.991,-0.75537,-0.58447,-0.22461;
18:56:20.001,-0.78857,-0.59131,-0.20605;
18:56:20.011,-0.81323,-0.59009,-0.20874;
18:56:20.021,-0.81714,-0.58179,-0.22290;
18:56:20.031,-0.80518,-0.57788,-0.23389;
18:56:20.041,-0.79224,-0.58154,-0.23975;
18:56:20.051,-0.79785,-0.59033,-0.24146;
18:56:20.061,-0.79883,-0.59912,-0.23633;
18:56:20.071,-0.78467,-0.60767,-0.23145;
18:56:20.081,-0.77100,-0.60693,-0.22583;
18:56:20.091,-0.76587,-0.61230,-0.21973;
18:56:20.101,-0.76196,-0.61768,-0.22510;
18:56:20.111,-0.75464,-0.61206,-0.23511;
18:56:20.121,-0.74072,-0.60767,-0.23657;
18:56:20.131,-0.72437,-0.61694,-0.22852;
18:56:20.141,-0.72095,-0.62305,-0.23315;
18:56:20.151,-0.71777,-0.61279,-0.25049;
18:56:20.161,-0.71338,-0.60498,-0.26953;
18:56:20.171,-0.72754,-0.57129,-0.31885;
18:56:20.181,-0.69897,-0.58789,-0.32837;
18:56:20.191,-0.68164,-0.58618,-0.32080;
18:56:20.201,-0.70825,-0.58228,-0.31201;
18:56:20.211,-0.72803,-0.57813,-0.29346;
18:56:20.221,-0.74194,-0.59766,-0.26978;
18:56:20.231,-0.75073,-0.60034,-0.26099;
18:56:20.241,-0.75806,-0.59790,-0.25439;
18:56:20.251,-0.76221,-0.59595,-0.25049;
18:56:20.261,-0.76514,-0.59058,-0.25049;
18:56:20.271,-0.76758,-0.59863,-0.24463;
